{
  "resourceType": "Bundle",
  "id": "mii-exa-test-data-bundle",
  "entry": [
    {
      "request": {
        "method": "PUT",
        "url": "Patient/mii-exa-test-data-patient-1"
      },
      "fullUrl": "https://www.medizininformatik-initiative.de/Patient/mii-exa-test-data-patient-1",
      "resource": {
        "resourceType": "Patient",
        "id": "mii-exa-test-data-patient-1",
        "meta": {
          "profile": [
            "https://www.medizininformatik-initiative.de/fhir/core/modul-person/StructureDefinition/Patient",
            "http://fhir.de/ConsentManagement/StructureDefinition/Patient"
          ]
        },
        "identifier": [
          {
            "assigner": {
              "identifier": {
                "type": {
                  "coding": [
                    {
                      "code": "XX",
                      "system": "http://terminology.hl7.org/CodeSystem/v2-0203"
                    }
                  ]
                },
                "system": "http://fhir.de/sid/arge-ik/iknr",
                "value": "987654321"
              }
            },
            "use": "official",
            "type": {
              "coding": [
                {
                  "code": "GKV",
                  "system": "http://fhir.de/CodeSystem/identifier-type-de-basis"
                }
              ]
            },
            "system": "http://fhir.de/sid/gkv/kvid-10",
            "value": "A123456780"
          },
          {
            "assigner": {
              "identifier": {
                "type": {
                  "coding": [
                    {
                      "code": "XX",
                      "system": "http://terminology.hl7.org/CodeSystem/v2-0203"
                    }
                  ]
                },
                "system": "https://www.medizininformatik-initiative.de/fhir/core/CodeSystem/core-location-identifier",
                "value": "Charité"
              }
            },
            "type": {
              "coding": [
                {
                  "code": "MR",
                  "system": "http://terminology.hl7.org/CodeSystem/v2-0203"
                }
              ]
            },
            "system": "https://www.charite.de/fhir/sid/patientenidentifikation",
            "value": "808439625"
          }
        ],
        "name": [
          {
            "given": [
              "Christian",
              "Ludwig"
            ],
            "prefix": [
              "Prinz von Preußen"
            ],
            "_prefix": [
              {
                "extension": [
                  {
                    "url": "http://hl7.org/fhir/StructureDefinition/iso21090-EN-qualifier",
                    "valueCode": "NB"
                  }
                ]
              }
            ],
            "suffix": [
              "aus dem Haus der Hohenzollern"
            ],
            "use": "official",
            "family": "Markgraf von Brandenburg-Schwedt",
            "_family": {
              "extension": [
                {
                  "url": "http://fhir.de/StructureDefinition/humanname-namenszusatz",
                  "valueString": "Markgraf"
                },
                {
                  "url": "http://hl7.org/fhir/StructureDefinition/humanname-own-name",
                  "valueString": "Brandenburg-Schwedt"
                },
                {
                  "url": "http://hl7.org/fhir/StructureDefinition/humanname-own-prefix",
                  "valueString": "von"
                }
              ]
            }
          }
        ],
        "address": [
          {
            "extension": [
              {
                "url": "http://hl7.org/fhir/StructureDefinition/iso21090-ADXP-precinct",
                "valueString": "Malchow"
              }
            ],
            "line": [
              "Dorfstraße 9",
              "Schloss",
              "Malchow"
            ],
            "_line": [
              {
                "extension": [
                  {
                    "url": "http://hl7.org/fhir/StructureDefinition/iso21090-ADXP-streetName",
                    "valueString": "Dorfstraße"
                  },
                  {
                    "url": "http://hl7.org/fhir/StructureDefinition/iso21090-ADXP-houseNumber",
                    "valueString": "9"
                  }
                ]
              },
              {
                "extension": [
                  {
                    "url": "http://hl7.org/fhir/StructureDefinition/iso21090-ADXP-additionalLocator",
                    "valueString": "Schloss"
                  }
                ]
              },
              null
            ],
            "type": "both",
            "city": "Berlin",
            "_city": {
              "extension": [
                {
                  "url": "http://fhir.de/StructureDefinition/destatis/ags",
                  "valueCoding": {
                    "code": "11000000",
                    "system": "http://fhir.de/sid/destatis/ags"
                  }
                }
              ]
            },
            "postalCode": "13051",
            "country": "DE"
          }
        ],
        "gender": "male",
        "birthDate": "1977-05-24",
        "deceasedDateTime": "2024-02-22"
      }
    },
    {
      "request": {
        "method": "PUT",
        "url": "Consent/mii-exa-test-data-patient-1-consent-1"
      },
      "fullUrl": "https://www.medizininformatik-initiative.de/Consent/mii-exa-test-data-patient-1-consent-1",
      "resource": {
        "resourceType": "Consent",
        "id": "mii-exa-test-data-patient-1-consent-1",
        "meta": {
          "profile": [
            "https://www.medizininformatik-initiative.de/fhir/modul-consent/StructureDefinition/mii-pr-consent-einwilligung"
          ]
        },
        "category": [
          {
            "coding": [
              {
                "system": "http://loinc.org",
                "code": "57016-8"
              }
            ]
          },
          {
            "coding": [
              {
                "code": "2.16.840.1.113883.3.1937.777.24.2.184",
                "system": "https://www.medizininformatik-initiative.de/fhir/modul-consent/CodeSystem/mii-cs-consent-consent_category"
              }
            ]
          }
        ],
        "organization": [
          {
            "reference": "Organization/mii-exa-test-data-organization-charite"
          }
        ],
        "policy": [
          {
            "uri": "urn:oid:2.16.840.1.113883.3.1937.777.24.2.1791"
          }
        ],
        "provision": {
          "period": {
            "start": "2024-02-23",
            "end": "2054-01-31"
          },
          "provision": [
            {
              "period": {
                "start": "2024-02-23",
                "end": "2054-01-31"
              },
              "code": [
                {
                  "coding": [
                    {
                      "code": "2.16.840.1.113883.3.1937.777.24.5.3.6",
                      "system": "urn:oid:2.16.840.1.113883.3.1937.777.24.5.3",
                      "display": "MDAT erheben"
                    }
                  ]
                }
              ],
              "type": "permit"
            },
            {
              "period": {
                "start": "2024-02-23",
                "end": "2054-01-31"
              },
              "code": [
                {
                  "coding": [
                    {
                      "code": "2.16.840.1.113883.3.1937.777.24.5.3.7",
                      "system": "urn:oid:2.16.840.1.113883.3.1937.777.24.5.3",
                      "display": "MDAT speichern, verarbeiten"
                    }
                  ]
                }
              ],
              "type": "permit"
            },
            {
              "period": {
                "start": "2024-02-23",
                "end": "2054-01-31"
              },
              "code": [
                {
                  "coding": [
                    {
                      "code": "2.16.840.1.113883.3.1937.777.24.5.3.8",
                      "system": "urn:oid:2.16.840.1.113883.3.1937.777.24.5.3",
                      "display": "MDAT wissenschaftlich nutzen EU DSGVO NIVEAU"
                    }
                  ]
                }
              ],
              "type": "permit"
            },
            {
              "period": {
                "start": "2024-02-23",
                "end": "2054-01-31"
              },
              "code": [
                {
                  "coding": [
                    {
                      "code": "2.16.840.1.113883.3.1937.777.24.5.3.19",
                      "system": "urn:oid:2.16.840.1.113883.3.1937.777.24.5.3",
                      "display": "BIOMAT erheben"
                    }
                  ]
                }
              ],
              "type": "permit"
            },
            {
              "period": {
                "start": "2024-02-23",
                "end": "2054-01-31"
              },
              "code": [
                {
                  "coding": [
                    {
                      "code": "2.16.840.1.113883.3.1937.777.24.5.3.20",
                      "system": "urn:oid:2.16.840.1.113883.3.1937.777.24.5.3",
                      "display": "BIOMAT lagern verarbeiten"
                    }
                  ]
                }
              ],
              "type": "permit"
            },
            {
              "period": {
                "start": "2024-02-23",
                "end": "2054-01-31"
              },
              "code": [
                {
                  "coding": [
                    {
                      "code": "2.16.840.1.113883.3.1937.777.24.5.3.22",
                      "system": "urn:oid:2.16.840.1.113883.3.1937.777.24.5.3",
                      "display": "BIOMAT wissenschaftlich nutzen EU DSGVO NIVEAU"
                    }
                  ]
                }
              ],
              "type": "permit"
            }
          ],
          "type": "deny"
        },
        "scope": {
          "coding": [
            {
              "system": "http://terminology.hl7.org/CodeSystem/consentscope",
              "code": "research"
            }
          ]
        },
        "status": "active",
        "patient": {
          "reference": "Patient/mii-exa-test-data-patient-1"
        },
        "dateTime": "2024-02-23T12:00:00+01:00"
      }
    },
    {
      "request": {
        "method": "PUT",
        "url": "Observation/mii-exa-test-data-patient-1-vitalstatus-1"
      },
      "fullUrl": "https://www.medizininformatik-initiative.de/Observation/mii-exa-test-data-patient-1-vitalstatus-1",
      "resource": {
        "resourceType": "Observation",
        "id": "mii-exa-test-data-patient-1-vitalstatus-1",
        "meta": {
          "profile": [
            "https://www.medizininformatik-initiative.de/fhir/core/modul-person/StructureDefinition/Vitalstatus"
          ]
        },
        "category": [
          {
            "coding": [
              {
                "system": "http://terminology.hl7.org/CodeSystem/observation-category",
                "code": "survey"
              }
            ]
          }
        ],
        "status": "final",
        "code": {
          "coding": [
            {
              "system": "http://loinc.org",
              "code": "67162-8"
            }
          ]
        },
        "subject": {
          "reference": "Patient/mii-exa-test-data-patient-1"
        },
        "effectiveDateTime": "2024-02-21T16:46:17+01:00",
        "valueCodeableConcept": {
          "coding": [
            {
              "code": "T",
              "system": "https://www.medizininformatik-initiative.de/fhir/core/modul-person/CodeSystem/Vitalstatus"
            }
          ]
        }
      }
    },
    {
      "request": {
        "method": "PUT",
        "url": "Condition/mii-exa-test-data-patient-1-todesursache-1"
      },
      "fullUrl": "https://www.medizininformatik-initiative.de/Condition/mii-exa-test-data-patient-1-todesursache-1",
      "resource": {
        "resourceType": "Condition",
        "id": "mii-exa-test-data-patient-1-todesursache-1",
        "meta": {
          "profile": [
            "https://www.medizininformatik-initiative.de/fhir/core/modul-person/StructureDefinition/Todesursache"
          ]
        },
        "code": {
          "coding": [
            {
              "system": "http://hl7.org/fhir/sid/icd-10",
              "code": "A15.0",
              "version": "2019"
            }
          ]
        },
        "note": [
          {
            "text": "Tuberkulose einschließlich ihrer Folgezustände"
          }
        ],
        "category": [
          {
            "coding": [
              {
                "system": "http://snomed.info/sct",
                "code": "16100001"
              },
              {
                "system": "http://loinc.org",
                "code": "79378-6"
              }
            ]
          }
        ],
        "clinicalStatus": {
          "coding": [
            {
              "code": "active",
              "system": "http://terminology.hl7.org/CodeSystem/condition-clinical"
            }
          ]
        },
        "verificationStatus": {
          "coding": [
            {
              "code": "confirmed",
              "system": "http://terminology.hl7.org/CodeSystem/condition-ver-status"
            }
          ]
        },
        "subject": {
          "reference": "Patient/mii-exa-test-data-patient-1"
        },
        "recordedDate": "2024-02-22"
      }
    },
    {
      "request": {
        "method": "PUT",
        "url": "Condition/mii-exa-test-data-patient-1-diagnose-1"
      },
      "fullUrl": "https://www.medizininformatik-initiative.de/Condition/mii-exa-test-data-patient-1-diagnose-1",
      "resource": {
        "resourceType": "Condition",
        "id": "mii-exa-test-data-patient-1-diagnose-1",
        "meta": {
          "profile": [
            "https://www.medizininformatik-initiative.de/fhir/core/modul-diagnose/StructureDefinition/Diagnose"
          ]
        },
        "code": {
          "coding": [
            {
              "extension": [
                {
                  "url": "http://fhir.de/StructureDefinition/icd-10-gm-mehrfachcodierungs-kennzeichen",
                  "valueCoding": {
                    "code": "†",
                    "system": "http://fhir.de/CodeSystem/icd-10-gm-mehrfachcodierungs-kennzeichen"
                  }
                },
                {
                  "url": "http://fhir.de/StructureDefinition/seitenlokalisation",
                  "valueCoding": {
                    "code": "B",
                    "system": "https://fhir.kbv.de/CodeSystem/KBV_CS_SFHIR_ICD_SEITENLOKALISATION",
                    "display": "beiderseits"
                  }
                },
                {
                  "url": "http://fhir.de/StructureDefinition/icd-10-gm-diagnosesicherheit",
                  "valueCoding": {
                    "code": "G",
                    "system": "https://fhir.kbv.de/CodeSystem/KBV_CS_SFHIR_ICD_DIAGNOSESICHERHEIT",
                    "display": "gesicherte Diagnose"
                  }
                }
              ],
              "system": "http://fhir.de/CodeSystem/bfarm/icd-10-gm",
              "code": "B05.3",
              "version": "2023"
            },
            {
              "system": "http://fhir.de/CodeSystem/bfarm/alpha-id",
              "code": "I29578",
              "version": "2023",
              "display": "Masern mit Otitis"
            },
            {
              "system": "http://snomed.info/sct",
              "code": "13420004",
              "version": "http://snomed.info/sct/900000000000207008/version/20230731",
              "display": "Post measles otitis media (disorder)"
            }
          ]
        },
        "note": [
          {
            "text": "Masernotitis"
          }
        ],
        "bodySite": [
          {
            "coding": [
              {
                "system": "http://snomed.info/sct",
                "code": "25342003",
                "version": "http://snomed.info/sct/900000000000207008/version/20230731",
                "display": "Middle ear structure (body structure)"
              }
            ]
          }
        ],
        "clinicalStatus": {
          "coding": [
            {
              "code": "active",
              "system": "http://terminology.hl7.org/CodeSystem/condition-clinical"
            }
          ]
        },
        "verificationStatus": {
          "coding": [
            {
              "code": "confirmed",
              "system": "http://terminology.hl7.org/CodeSystem/condition-ver-status"
            }
          ]
        },
        "subject": {
          "reference": "Patient/mii-exa-test-data-patient-1"
        },
        "recordedDate": "2024-02-21",
        "onsetDateTime": "2024-02-21"
      }
    },
    {
      "request": {
        "method": "PUT",
        "url": "Condition/mii-exa-test-data-patient-1-diagnose-2"
      },
      "fullUrl": "https://www.medizininformatik-initiative.de/Condition/mii-exa-test-data-patient-1-diagnose-2",
      "resource": {
        "resourceType": "Condition",
        "id": "mii-exa-test-data-patient-1-diagnose-2",
        "meta": {
          "profile": [
            "https://www.medizininformatik-initiative.de/fhir/core/modul-diagnose/StructureDefinition/Diagnose"
          ]
        },
        "code": {
          "coding": [
            {
              "system": "http://fhir.de/CodeSystem/bfarm/icd-10-gm",
              "code": "H67.1",
              "version": "2023",
              "display": "Otitis media bei anderenorts klassifizierten Viruskrankheiten"
            }
          ]
        },
        "note": [
          {
            "text": "Masernotitis"
          }
        ],
        "extension": [
          {
            "url": "http://hl7.org/fhir/StructureDefinition/condition-related",
            "valueReference": {
              "reference": "Condition/mii-exa-test-data-patient-1-diagnose-1"
            }
          }
        ],
        "clinicalStatus": {
          "coding": [
            {
              "code": "active",
              "system": "http://terminology.hl7.org/CodeSystem/condition-clinical"
            }
          ]
        },
        "verificationStatus": {
          "coding": [
            {
              "code": "confirmed",
              "system": "http://terminology.hl7.org/CodeSystem/condition-ver-status"
            }
          ]
        },
        "subject": {
          "reference": "Patient/mii-exa-test-data-patient-1"
        },
        "recordedDate": "2024-02-21",
        "onsetDateTime": "2024-02-21"
      }
    },
    {
      "request": {
        "method": "PUT",
        "url": "Encounter/mii-exa-test-data-patient-1-encounter-1"
      },
      "fullUrl": "https://www.medizininformatik-initiative.de/Encounter/mii-exa-test-data-patient-1-encounter-1",
      "resource": {
        "resourceType": "Encounter",
        "id": "mii-exa-test-data-patient-1-encounter-1",
        "meta": {
          "profile": [
            "https://www.medizininformatik-initiative.de/fhir/core/modul-fall/StructureDefinition/KontaktGesundheitseinrichtung"
          ]
        },
        "identifier": [
          {
            "type": {
              "coding": [
                {
                  "system": "http://terminology.hl7.org/CodeSystem/v2-0203",
                  "code": "VN"
                }
              ]
            },
            "system": "https://www.charite.de/fhir/NamingSystem/Aufnahmenummern",
            "value": "MII_0000001"
          }
        ],
        "type": [
          {
            "coding": [
              {
                "system": "http://fhir.de/CodeSystem/Kontaktebene",
                "code": "einrichtungskontakt"
              }
            ]
          },
          {
            "coding": [
              {
                "system": "http://fhir.de/CodeSystem/kontaktart-de",
                "code": "normalstationaer"
              }
            ]
          }
        ],
        "serviceType": {
          "coding": [
            {
              "system": "http://fhir.de/CodeSystem/dkgev/Fachabteilungsschluessel",
              "code": "0100"
            }
          ]
        },
        "period": {
          "start": "2024-02-14",
          "end": "2024-02-22"
        },
        "diagnosis": [
          {
            "condition": {
              "reference": "Condition/mii-exa-test-data-patient-1-diagnose-1"
            },
            "use": {
              "coding": [
                {
                  "code": "AD",
                  "system": "http://terminology.hl7.org/CodeSystem/diagnosis-role",
                  "display": "Admission diagnosis"
                }
              ]
            },
            "rank": 1
          },
          {
            "condition": {
              "reference": "Condition/mii-exa-test-data-patient-1-todesursache-1"
            },
            "use": {
              "coding": [
                {
                  "code": "DD",
                  "system": "http://terminology.hl7.org/CodeSystem/diagnosis-role",
                  "display": "Discharge diagnosis"
                }
              ]
            },
            "rank": 2
          }
        ],
        "hospitalization": {
          "dischargeDisposition": {
            "extension": [
              {
                "extension": [
                  {
                    "url": "ErsteUndZweiteStelle",
                    "valueCoding": {
                      "code": "07",
                      "system": "http://fhir.de/CodeSystem/dkgev/EntlassungsgrundErsteUndZweiteStelle",
                      "display": "Tod"
                    }
                  },
                  {
                    "url": "DritteStelle",
                    "valueCoding": {
                      "code": "9",
                      "system": "http://fhir.de/CodeSystem/dkgev/EntlassungsgrundDritteStelle",
                      "display": "keine Angabe"
                    }
                  }
                ],
                "url": "http://fhir.de/StructureDefinition/Entlassungsgrund"
              }
            ]
          },
          "admitSource": {
            "coding": [
              {
                "code": "E",
                "system": "http://fhir.de/CodeSystem/dgkev/Aufnahmeanlass",
                "display": "Einweisung durch einen Arzt"
              }
            ]
          }
        },
        "location": [
          {
            "location": {
              "identifier": {
                "system": "https://www.charite.de/fhir/sid/Zimmernummern",
                "value": "RHC-06-210b"
              },
              "display": "RHC-06-210b"
            },
            "physicalType": {
              "coding": [
                {
                  "system": "http://terminology.hl7.org/CodeSystem/location-physical-type",
                  "code": "ro"
                }
              ]
            }
          },
          {
            "location": {
              "identifier": {
                "system": "https://www.charite.de/fhir/sid/Bettennummern",
                "value": "RHC-06-210b-02"
              },
              "display": "RHC-06-210b-02"
            },
            "physicalType": {
              "coding": [
                {
                  "system": "http://terminology.hl7.org/CodeSystem/location-physical-type",
                  "code": "bd"
                }
              ]
            }
          },
          {
            "location": {
              "identifier": {
                "system": "https://www.charite.de/fhir/sid/Stationsnummern",
                "value": "RHC-06"
              },
              "display": "RHC-06"
            },
            "physicalType": {
              "coding": [
                {
                  "system": "http://terminology.hl7.org/CodeSystem/location-physical-type",
                  "code": "wa"
                }
              ]
            }
          }
        ],
        "serviceProvider": {
          "identifier": {
            "system": "https://www.medizininformatik-initiative.de/fhir/core/CodeSystem/core-location-identifier",
            "value": "Charité"
          },
          "reference": "Organization/mii-exa-test-data-organization-charite",
          "display": "Charité – Universitätsmedizin Berlin"
        },
        "status": "finished",
        "class": {
          "code": "IMP",
          "system": "http://terminology.hl7.org/CodeSystem/v3-ActCode"
        },
        "subject": {
          "reference": "Patient/mii-exa-test-data-patient-1"
        }
      }
    },
    {
      "request": {
        "method": "PUT",
        "url": "Encounter/mii-exa-test-data-patient-1-encounter-2"
      },
      "fullUrl": "https://www.medizininformatik-initiative.de/Encounter/mii-exa-test-data-patient-1-encounter-2",
      "resource": {
        "resourceType": "Encounter",
        "id": "mii-exa-test-data-patient-1-encounter-2",
        "meta": {
          "profile": [
            "https://www.medizininformatik-initiative.de/fhir/core/modul-fall/StructureDefinition/KontaktGesundheitseinrichtung"
          ]
        },
        "identifier": [
          {
            "type": {
              "coding": [
                {
                  "system": "http://terminology.hl7.org/CodeSystem/v2-0203",
                  "code": "VN"
                }
              ]
            },
            "system": "https://www.charite.de/fhir/NamingSystem/Aufnahmenummern",
            "value": "MII_0000002"
          }
        ],
        "type": [
          {
            "coding": [
              {
                "system": "http://fhir.de/CodeSystem/Kontaktebene",
                "code": "versorgungsstellenkontakt"
              }
            ]
          },
          {
            "coding": [
              {
                "system": "http://fhir.de/CodeSystem/kontaktart-de",
                "code": "operation"
              }
            ]
          }
        ],
        "serviceType": {
          "coding": [
            {
              "system": "http://fhir.de/CodeSystem/dkgev/Fachabteilungsschluessel",
              "code": "2000"
            }
          ]
        },
        "period": {
          "start": "2024-02-20T10:00:00+01:00",
          "end": "2024-02-20T13:00:00+01:00"
        },
        "status": "finished",
        "class": {
          "code": "IMP",
          "system": "http://terminology.hl7.org/CodeSystem/v3-ActCode"
        },
        "subject": {
          "reference": "Patient/mii-exa-test-data-patient-1"
        },
        "partOf": {
          "reference": "Encounter/mii-exa-test-data-patient-1-encounter-1"
        }
      }
    },
    {
      "request": {
        "method": "PUT",
        "url": "Organization/mii-exa-test-data-organization-charite"
      },
      "fullUrl": "https://www.medizininformatik-initiative.de/Organization/mii-exa-test-data-organization-charite",
      "resource": {
        "resourceType": "Organization",
        "id": "mii-exa-test-data-organization-charite",
        "type": [
          {
            "coding": [
              {
                "code": "prov",
                "system": "http://terminology.hl7.org/CodeSystem/organization-type",
                "display": "Healthcare Provider"
              }
            ]
          }
        ],
        "name": "Charité – Universitätsmedizin Berlin"
      }
    },
    {
      "request": {
        "method": "PUT",
        "url": "Procedure/mii-exa-test-data-patient-1-prozedur-1"
      },
      "fullUrl": "https://www.medizininformatik-initiative.de/Procedure/mii-exa-test-data-patient-1-prozedur-1",
      "resource": {
        "resourceType": "Procedure",
        "id": "mii-exa-test-data-patient-1-prozedur-1",
        "meta": {
          "profile": [
            "https://www.medizininformatik-initiative.de/fhir/core/modul-prozedur/StructureDefinition/Procedure"
          ]
        },
        "category": {
          "coding": [
            {
              "system": "http://snomed.info/sct",
              "code": "387713003",
              "version": "http://snomed.info/sct/900000000000207008/version/20230731"
            }
          ]
        },
        "code": {
          "coding": [
            {
              "system": "http://snomed.info/sct",
              "code": "726427004",
              "version": "http://snomed.info/sct/900000000000207008/version/20230731"
            },
            {
              "system": "http://fhir.de/CodeSystem/bfarm/ops",
              "code": "5-323.51",
              "version": "2023"
            }
          ]
        },
        "bodySite": [
          {
            "coding": [
              {
                "code": "44714003",
                "system": "http://snomed.info/sct",
                "version": "http://snomed.info/sct/900000000000207008/version/20230731"
              }
            ]
          }
        ],
        "note": [
          {
            "text": "Exzision und Resektion an Lunge"
          }
        ],
        "performedPeriod": {
          "start": "2024-02-20T10:14:00+01:00",
          "end": "2024-02-20T12:47:00+01:00"
        },
        "extension": [
          {
            "url": "http://fhir.de/StructureDefinition/ProzedurDokumentationsdatum",
            "valueDateTime": "2024-02-20T16:15:00+01:00"
          },
          {
            "url": "https://www.medizininformatik-initiative.de/fhir/core/modul-prozedur/StructureDefinition/Durchfuehrungsabsicht",
            "valueCoding": {
              "system": "http://snomed.info/sct",
              "code": "262202000",
              "version": "http://snomed.info/sct/900000000000207008/version/20230731"
            }
          }
        ],
        "status": "completed",
        "subject": {
          "reference": "Patient/mii-exa-test-data-patient-1"
        },
        "encounter": {
          "reference": "Encounter/mii-exa-test-data-patient-1-encounter-1"
        }
      }
    },
    {
      "request": {
        "method": "PUT",
        "url": "Procedure/mii-exa-test-data-patient-1-prozedur-2"
      },
      "fullUrl": "https://www.medizininformatik-initiative.de/Procedure/mii-exa-test-data-patient-1-prozedur-2",
      "resource": {
        "resourceType": "Procedure",
        "id": "mii-exa-test-data-patient-1-prozedur-2",
        "meta": {
          "profile": [
            "https://www.medizininformatik-initiative.de/fhir/core/modul-prozedur/StructureDefinition/Procedure"
          ]
        },
        "category": {
          "coding": [
            {
              "system": "http://snomed.info/sct",
              "code": "18629005",
              "version": "http://snomed.info/sct/900000000000207008/version/20230731"
            }
          ]
        },
        "code": {
          "coding": [
            {
              "system": "http://snomed.info/sct",
              "code": "281790008",
              "version": "http://snomed.info/sct/900000000000207008/version/20230731"
            },
            {
              "system": "http://fhir.de/CodeSystem/bfarm/ops",
              "code": "6-00g.33",
              "version": "2023"
            }
          ]
        },
        "bodySite": [
          {
            "coding": [
              {
                "code": "789218009",
                "system": "http://snomed.info/sct",
                "version": "http://snomed.info/sct/900000000000207008/version/20230731"
              }
            ]
          }
        ],
        "note": [
          {
            "text": "Dalbavancin parenteral"
          }
        ],
        "performedPeriod": {
          "start": "2024-02-16T10:20:00.000+01:00",
          "end": "2024-02-16T10:50:00.000+01:00"
        },
        "extension": [
          {
            "url": "https://www.medizininformatik-initiative.de/fhir/core/modul-prozedur/StructureDefinition/Durchfuehrungsabsicht",
            "valueCoding": {
              "system": "http://snomed.info/sct",
              "code": "262202000",
              "version": "http://snomed.info/sct/900000000000207008/version/20230731"
            }
          }
        ],
        "status": "completed",
        "subject": {
          "reference": "Patient/mii-exa-test-data-patient-1"
        },
        "encounter": {
          "reference": "Encounter/mii-exa-test-data-patient-1-encounter-1"
        }
      }
    },
    {
      "request": {
        "method": "PUT",
        "url": "List/mii-exa-test-data-patient-1-list-aufnahmemedikation"
      },
      "fullUrl": "https://www.medizininformatik-initiative.de/List/mii-exa-test-data-patient-1-list-aufnahmemedikation",
      "resource": {
        "resourceType": "List",
        "id": "mii-exa-test-data-patient-1-list-aufnahmemedikation",
        "meta": {
          "profile": [
            "https://www.medizininformatik-initiative.de/fhir/core/modul-medikation/StructureDefinition/medikationsliste"
          ]
        },
        "code": {
          "coding": [
            {
              "system": "http://terminology.hl7.org/CodeSystem/list-example-use-codes",
              "code": "medications"
            },
            {
              "system": "http://ihe-d.de/CodeSystems/FallkontextBeiDokumentenerstellung",
              "code": "E210"
            }
          ]
        },
        "entry": [
          {
            "item": {
              "reference": "MedicationStatement/mii-exa-test-data-patient-1-medstatement-1"
            }
          }
        ],
        "status": "current",
        "mode": "snapshot",
        "title": "Aufnahmemedikation",
        "subject": {
          "reference": "Patient/mii-exa-test-data-patient-1"
        }
      }
    },
    {
      "request": {
        "method": "PUT",
        "url": "List/mii-exa-test-data-patient-1-list-stat-aufenthalt"
      },
      "fullUrl": "https://www.medizininformatik-initiative.de/List/mii-exa-test-data-patient-1-list-stat-aufenthalt",
      "resource": {
        "resourceType": "List",
        "id": "mii-exa-test-data-patient-1-list-stat-aufenthalt",
        "meta": {
          "profile": [
            "https://www.medizininformatik-initiative.de/fhir/core/modul-medikation/StructureDefinition/medikationsliste"
          ]
        },
        "code": {
          "coding": [
            {
              "system": "http://terminology.hl7.org/CodeSystem/list-example-use-codes",
              "code": "medications"
            },
            {
              "system": "http://ihe-d.de/CodeSystems/FallkontextBeiDokumentenerstellung",
              "code": "E200"
            }
          ]
        },
        "entry": [
          {
            "item": {
              "reference": "MedicationStatement/mii-exa-test-data-patient-1-medstatement-1"
            }
          },
          {
            "item": {
              "reference": "MedicationStatement/mii-exa-test-data-patient-1-medstatement-2"
            }
          }
        ],
        "status": "current",
        "mode": "working",
        "title": "Medikationsliste während stationärem Aufenthalt",
        "subject": {
          "reference": "Patient/mii-exa-test-data-patient-1"
        }
      }
    },
    {
      "request": {
        "method": "PUT",
        "url": "Medication/mii-exa-test-data-medication-ass-100"
      },
      "fullUrl": "https://www.medizininformatik-initiative.de/Medication/mii-exa-test-data-medication-ass-100",
      "resource": {
        "resourceType": "Medication",
        "id": "mii-exa-test-data-medication-ass-100",
        "meta": {
          "profile": [
            "https://www.medizininformatik-initiative.de/fhir/core/modul-medikation/StructureDefinition/Medication"
          ]
        },
        "code": {
          "coding": [
            {
              "system": "http://fhir.de/CodeSystem/ifa/pzn",
              "code": "06312077",
              "display": "ASS 100 - 1a Pharma TAH Tabletten"
            },
            {
              "system": "http://fhir.de/CodeSystem/bfarm/atc",
              "code": "B01AC06",
              "version": "2023",
              "display": "Acetylsalicylsäure"
            }
          ]
        },
        "form": {
          "coding": [
            {
              "system": "http://standardterms.edqm.eu",
              "code": "10219000",
              "display": "Tablet"
            }
          ]
        },
        "ingredient": [
          {
            "itemCodeableConcept": {
              "coding": [
                {
                  "system": "http://fhir.de/CodeSystem/ask",
                  "code": "00002",
                  "display": "Acetylsalicylsäure"
                }
              ]
            },
            "strength": {
              "numerator": {
                "value": 100,
                "code": "mg",
                "system": "http://unitsofmeasure.org",
                "unit": "milligram"
              },
              "denominator": {
                "value": 1,
                "code": "10219000",
                "system": "http://standardterms.edqm.eu",
                "unit": "Tablet"
              }
            }
          }
        ]
      }
    },
    {
      "request": {
        "method": "PUT",
        "url": "Medication/mii-exa-test-data-medication-dalbavancin"
      },
      "fullUrl": "https://www.medizininformatik-initiative.de/Medication/mii-exa-test-data-medication-dalbavancin",
      "resource": {
        "resourceType": "Medication",
        "id": "mii-exa-test-data-medication-dalbavancin",
        "meta": {
          "profile": [
            "https://www.medizininformatik-initiative.de/fhir/core/modul-medikation/StructureDefinition/Medication"
          ]
        },
        "code": {
          "coding": [
            {
              "system": "http://fhir.de/CodeSystem/ifa/pzn",
              "code": "06312077",
              "display": "ASS 100 - 1a Pharma TAH Tabletten"
            },
            {
              "system": "http://fhir.de/CodeSystem/bfarm/atc",
              "code": "J01XA04",
              "version": "2023",
              "display": "Dalbavancin"
            }
          ]
        },
        "form": {
          "coding": [
            {
              "system": "http://standardterms.edqm.eu",
              "code": "50043000",
              "display": "Powder for concentrate for solution for infusion"
            }
          ]
        },
        "ingredient": [
          {
            "itemCodeableConcept": {
              "coding": [
                {
                  "system": "http://fhir.de/CodeSystem/ask",
                  "code": "33395",
                  "display": "Dalbavancin"
                },
                {
                  "system": "http://fdasis.nlm.nih.gov",
                  "code": "808UI9MS5K"
                },
                {
                  "system": "urn:oid:2.16.840.1.113883.6.61",
                  "code": "171500-79-1"
                },
                {
                  "system": "http://snomed.info/sct",
                  "code": "703917001",
                  "version": "http://snomed.info/sct/900000000000207008/version/20230731",
                  "display": "Dalbavancin (substance)"
                }
              ]
            }
          }
        ]
      }
    },
    {
      "request": {
        "method": "PUT",
        "url": "MedicationAdministration/mii-exa-test-data-patient-1-medadmin-1"
      },
      "fullUrl": "https://www.medizininformatik-initiative.de/MedicationAdministration/mii-exa-test-data-patient-1-medadmin-1",
      "resource": {
        "resourceType": "MedicationAdministration",
        "id": "mii-exa-test-data-patient-1-medadmin-1",
        "meta": {
          "profile": [
            "https://www.medizininformatik-initiative.de/fhir/core/modul-medikation/StructureDefinition/MedicationAdministration"
          ]
        },
        "identifier": [
          {
            "system": "https://www.charite.de/fhir/sid/MedicationAdministrations",
            "value": "MA_0000001"
          }
        ],
        "effectivePeriod": {
          "start": "2024-02-16T10:20:00.000+01:00",
          "end": "2024-02-16T10:50:00.000+01:00"
        },
        "note": [
          {
            "text": "wie angeordnet verabreicht"
          }
        ],
        "dosage": {
          "site": {
            "coding": [
              {
                "system": "http://snomed.info/sct",
                "code": "789218009",
                "version": "http://snomed.info/sct/900000000000207008/version/20230731",
                "display": "Structure of dorsum of left hand (body structure)"
              }
            ]
          },
          "route": {
            "coding": [
              {
                "system": "http://standardterms.edqm.eu",
                "code": "20045000",
                "display": "Intravenous use"
              },
              {
                "system": "http://snomed.info/sct",
                "code": "47625008",
                "version": "http://snomed.info/sct/900000000000207008/version/20230731",
                "display": "Intravenous route (qualifier value)"
              }
            ]
          },
          "rateRatio": {
            "numerator": {
              "system": "http://unitsofmeasure.org",
              "value": 1500,
              "code": "mg",
              "unit": "mg"
            },
            "denominator": {
              "system": "http://unitsofmeasure.org",
              "value": 30,
              "code": "min",
              "unit": "Minuten"
            }
          },
          "dose": {
            "system": "http://unitsofmeasure.org",
            "value": 1500,
            "code": "mg",
            "unit": "mg"
          },
          "text": "Dalbavancin 1500 mg als 30-minütige Infusion"
        },
        "status": "completed",
        "category": {
          "coding": [
            {
              "code": "inpatient",
              "system": "http://terminology.hl7.org/CodeSystem/medication-admin-category",
              "display": "Inpatient"
            }
          ]
        },
        "medicationReference": {
          "reference": "Medication/mii-exa-test-data-medication-dalbavancin"
        },
        "subject": {
          "reference": "Patient/mii-exa-test-data-patient-1"
        },
        "context": {
          "reference": "Encounter/mii-exa-test-data-patient-1-encounter-1"
        },
        "request": {
          "reference": "MedicationRequest/mii-exa-test-data-patient-1-medrequest-1"
        }
      }
    },
    {
      "request": {
        "method": "PUT",
        "url": "MedicationRequest/mii-exa-test-data-patient-1-medrequest-1"
      },
      "fullUrl": "https://www.medizininformatik-initiative.de/MedicationRequest/mii-exa-test-data-patient-1-medrequest-1",
      "resource": {
        "resourceType": "MedicationRequest",
        "id": "mii-exa-test-data-patient-1-medrequest-1",
        "meta": {
          "profile": [
            "https://www.medizininformatik-initiative.de/fhir/core/modul-medikation/StructureDefinition/MedicationRequest"
          ]
        },
        "identifier": [
          {
            "system": "https://www.charite.de/fhir/sid/MedicationOrders",
            "value": "MO_0000001"
          }
        ],
        "dosageInstruction": [
          {
            "timing": {
              "event": [
                "2024-02-16"
              ]
            },
            "doseAndRate": [
              {
                "rateRatio": {
                  "numerator": {
                    "system": "http://unitsofmeasure.org",
                    "value": 1500,
                    "code": "mg",
                    "unit": "mg"
                  },
                  "denominator": {
                    "system": "http://unitsofmeasure.org",
                    "value": 30,
                    "code": "min",
                    "unit": "Minuten"
                  }
                },
                "doseQuantity": {
                  "value": 1500,
                  "code": "mg",
                  "system": "http://unitsofmeasure.org",
                  "unit": "mg"
                }
              }
            ],
            "maxDosePerAdministration": {
              "system": "http://unitsofmeasure.org",
              "value": 1500,
              "code": "mg",
              "unit": "mg"
            },
            "text": "Dalbavancin 1500 mg als 30-minütige Infusion",
            "route": {
              "coding": [
                {
                  "code": "20045000",
                  "system": "http://standardterms.edqm.eu",
                  "display": "Intravenous use"
                }
              ]
            }
          }
        ],
        "substitution": {
          "allowedBoolean": false
        },
        "status": "active",
        "intent": "order",
        "medicationReference": {
          "reference": "Medication/mii-exa-test-data-medication-dalbavancin"
        },
        "subject": {
          "reference": "Patient/mii-exa-test-data-patient-1"
        },
        "encounter": {
          "reference": "Encounter/mii-exa-test-data-patient-1-encounter-1"
        },
        "authoredOn": "2024-02-16T08:37:00+01:00"
      }
    },
    {
      "request": {
        "method": "PUT",
        "url": "MedicationStatement/mii-exa-test-data-patient-1-medstatement-1"
      },
      "fullUrl": "https://www.medizininformatik-initiative.de/MedicationStatement/mii-exa-test-data-patient-1-medstatement-1",
      "resource": {
        "resourceType": "MedicationStatement",
        "id": "mii-exa-test-data-patient-1-medstatement-1",
        "meta": {
          "profile": [
            "https://www.medizininformatik-initiative.de/fhir/core/modul-medikation/StructureDefinition/MedicationStatement"
          ]
        },
        "identifier": [
          {
            "system": "https://www.charite.de/fhir/sid/MedicationStatements",
            "value": "MS_0000001"
          }
        ],
        "category": {
          "coding": [
            {
              "system": "http://terminology.hl7.org/CodeSystem/medication-statement-category",
              "code": "outpatient"
            },
            {
              "system": "http://ihe-d.de/CodeSystems/FallkontextBeiDokumentenerstellung",
              "code": "E210",
              "display": "stationäre Aufnahme"
            }
          ]
        },
        "effectivePeriod": {
          "start": "2020-08-30"
        },
        "reasonCode": [
          {
            "coding": [
              {
                "code": "787930001",
                "system": "http://snomed.info/sct",
                "version": "http://snomed.info/sct/900000000000207008/version/20230731",
                "display": "Direct thrombin inhibitor prophylaxis indicated (situation)"
              }
            ]
          }
        ],
        "dosage": [
          {
            "timing": {
              "repeat": {
                "when": [
                  "CD"
                ],
                "frequency": 1,
                "period": 1,
                "periodUnit": "d"
              }
            },
            "route": {
              "coding": [
                {
                  "code": "20053000",
                  "system": "http://standardterms.edqm.eu",
                  "display": "Oral use"
                }
              ]
            },
            "text": "ASS 100 mg 1x täglich mittags eine Tablette oral"
          }
        ],
        "status": "active",
        "medicationReference": {
          "reference": "Medication/mii-exa-test-data-medication-ass-100"
        },
        "subject": {
          "reference": "Patient/mii-exa-test-data-patient-1"
        },
        "context": {
          "reference": "Encounter/mii-exa-test-data-patient-1-encounter-1"
        },
        "dateAsserted": "2024-02-14",
        "informationSource": {
          "reference": "Patient/mii-exa-test-data-patient-1"
        }
      }
    },
    {
      "request": {
        "method": "PUT",
        "url": "MedicationStatement/mii-exa-test-data-patient-1-medstatement-2"
      },
      "fullUrl": "https://www.medizininformatik-initiative.de/MedicationStatement/mii-exa-test-data-patient-1-medstatement-2",
      "resource": {
        "resourceType": "MedicationStatement",
        "id": "mii-exa-test-data-patient-1-medstatement-2",
        "meta": {
          "profile": [
            "https://www.medizininformatik-initiative.de/fhir/core/modul-medikation/StructureDefinition/MedicationStatement"
          ]
        },
        "identifier": [
          {
            "system": "https://www.charite.de/fhir/sid/MedicationStatements",
            "value": "MS_0000002"
          }
        ],
        "basedOn": [
          {
            "reference": "MedicationRequest/mii-exa-test-data-patient-1-medrequest-1"
          }
        ],
        "partOf": [
          {
            "reference": "Procedure/mii-exa-test-data-patient-1-prozedur-2"
          }
        ],
        "category": {
          "coding": [
            {
              "system": "http://terminology.hl7.org/CodeSystem/medication-statement-category",
              "code": "inpatient"
            },
            {
              "system": "http://ihe-d.de/CodeSystems/FallkontextBeiDokumentenerstellung",
              "code": "E200",
              "display": "stationärer Aufenthalt"
            }
          ]
        },
        "effectivePeriod": {
          "start": "2024-02-16T10:20:00.000+01:00",
          "end": "2024-02-16T10:50:00.000+01:00"
        },
        "dosage": [
          {
            "site": {
              "coding": [
                {
                  "system": "http://snomed.info/sct",
                  "code": "789218009",
                  "version": "http://snomed.info/sct/900000000000207008/version/20230731",
                  "display": "Structure of dorsum of left hand (body structure)"
                }
              ]
            },
            "route": {
              "coding": [
                {
                  "system": "http://standardterms.edqm.eu",
                  "code": "20045000",
                  "display": "Intravenous use"
                },
                {
                  "system": "http://snomed.info/sct",
                  "code": "47625008",
                  "version": "http://snomed.info/sct/900000000000207008/version/20230731",
                  "display": "Intravenous route (qualifier value)"
                }
              ]
            },
            "doseAndRate": [
              {
                "rateRatio": {
                  "numerator": {
                    "system": "http://unitsofmeasure.org",
                    "value": 1500,
                    "code": "mg",
                    "unit": "mg"
                  },
                  "denominator": {
                    "system": "http://unitsofmeasure.org",
                    "value": 30,
                    "code": "min",
                    "unit": "Minuten"
                  }
                },
                "doseQuantity": {
                  "system": "http://unitsofmeasure.org",
                  "value": 1500,
                  "code": "mg",
                  "unit": "mg"
                }
              }
            ],
            "text": "Dalbavancin 1500 mg als 30-minütige Infusion"
          }
        ],
        "status": "completed",
        "medicationReference": {
          "reference": "Medication/mii-exa-test-data-medication-dalbavancin"
        },
        "subject": {
          "reference": "Patient/mii-exa-test-data-patient-1"
        },
        "context": {
          "reference": "Encounter/mii-exa-test-data-patient-1-encounter-1"
        },
        "dateAsserted": "2024-02-16"
      }
    },
    {
      "request": {
        "method": "PUT",
        "url": "Specimen/mii-exa-test-data-patient-1-specimen-1"
      },
      "fullUrl": "https://www.medizininformatik-initiative.de/Specimen/mii-exa-test-data-patient-1-specimen-1",
      "resource": {
        "resourceType": "Specimen",
        "id": "mii-exa-test-data-patient-1-specimen-1",
        "meta": {
          "profile": [
            "https://www.medizininformatik-initiative.de/fhir/ext/modul-biobank/StructureDefinition/Specimen"
          ]
        },
        "extension": [
          {
            "url": "https://www.medizininformatik-initiative.de/fhir/ext/modul-biobank/StructureDefinition/VerwaltendeOrganisation",
            "valueReference": {
              "reference": "Organization/mii-exa-test-data-organization-biobank-charite"
            }
          }
        ],
        "identifier": [
          {
            "system": "https://www.charite.de/fhir/sid/Bioproben",
            "value": "BP_000001"
          }
        ],
        "type": {
          "coding": [
            {
              "code": "122555007",
              "system": "http://snomed.info/sct",
              "version": "http://snomed.info/sct/900000000000207008/version/20230731",
              "display": "Venous blood specimen (specimen)"
            }
          ]
        },
        "collection": {
          "bodySite": {
            "coding": [
              {
                "code": "789218009",
                "system": "http://snomed.info/sct",
                "version": "http://snomed.info/sct/900000000000207008/version/20230731",
                "display": "Structure of dorsum of left hand (body structure)"
              }
            ]
          },
          "collectedDateTime": "2024-02-15T11:05:00+01:00",
          "fastingStatusCodeableConcept": {
            "coding": [
              {
                "code": "F",
                "system": "http://terminology.hl7.org/CodeSystem/v2-0916",
                "display": "Patient was fasting prior to the procedure."
              }
            ]
          }
        },
        "container": [
          {
            "type": {
              "coding": [
                {
                  "code": "83059008",
                  "system": "http://snomed.info/sct",
                  "version": "http://snomed.info/sct/900000000000207008/version/20230731",
                  "display": "Tube, device (physical object)"
                }
              ]
            },
            "capacity": {
              "value": 10,
              "code": "ml",
              "system": "http://unitsofmeasure.org"
            },
            "specimenQuantity": {
              "value": 10,
              "code": "ml",
              "system": "http://unitsofmeasure.org"
            },
            "additiveReference": {
              "reference": "Substance/mii-exa-test-data-patient-1-substance-1"
            }
          }
        ],
        "status": "available",
        "subject": {
          "reference": "Patient/mii-exa-test-data-patient-1"
        }
      }
    },
    {
      "request": {
        "method": "PUT",
        "url": "Substance/mii-exa-test-data-patient-1-substance-1"
      },
      "fullUrl": "https://www.medizininformatik-initiative.de/Substance/mii-exa-test-data-patient-1-substance-1",
      "resource": {
        "resourceType": "Substance",
        "id": "mii-exa-test-data-patient-1-substance-1",
        "meta": {
          "profile": [
            "https://www.medizininformatik-initiative.de/fhir/ext/modul-biobank/StructureDefinition/Substance"
          ]
        },
        "category": [
          {
            "coding": [
              {
                "code": "chemical",
                "system": "http://terminology.hl7.org/CodeSystem/substance-category",
                "display": "Chemical"
              }
            ]
          }
        ],
        "code": {
          "coding": [
            {
              "code": "69519002",
              "system": "http://snomed.info/sct",
              "version": "http://snomed.info/sct/900000000000207008/version/20230731",
              "display": "Edetic acid (substance)"
            }
          ]
        }
      }
    },
    {
      "request": {
        "method": "PUT",
        "url": "Device/mii-exa-test-data-device-roche-cobas-c303"
      },
      "fullUrl": "https://www.medizininformatik-initiative.de/Device/mii-exa-test-data-device-roche-cobas-c303",
      "resource": {
        "resourceType": "Device",
        "id": "mii-exa-test-data-device-roche-cobas-c303",
        "deviceName": [
          {
            "name": "cobas",
            "type": "manufacturer-name"
          }
        ],
        "status": "active",
        "manufacturer": "Roche",
        "modelNumber": "c 303",
        "parent": {
          "reference": "Device/mii-exa-test-data-device-roche-cobas"
        }
      }
    },
    {
      "request": {
        "method": "PUT",
        "url": "Organization/mii-exa-test-data-organization-biobank-charite"
      },
      "fullUrl": "https://www.medizininformatik-initiative.de/Organization/mii-exa-test-data-organization-biobank-charite",
      "resource": {
        "resourceType": "Organization",
        "id": "mii-exa-test-data-organization-biobank-charite",
        "meta": {
          "profile": [
            "https://www.medizininformatik-initiative.de/fhir/ext/modul-biobank/StructureDefinition/Organization"
          ]
        },
        "extension": [
          {
            "url": "https://www.medizininformatik-initiative.de/fhir/ext/modul-biobank/StructureDefinition/BeschreibungSammlung",
            "valueMarkdown": "Zentrale Biobank der Charité"
          }
        ],
        "identifier": [
          {
            "system": "http://www.bbmri-eric.eu/",
            "value": "de-12345"
          }
        ],
        "alias": [
          "ZeBanC"
        ],
        "contact": [
          {
            "extension": [
              {
                "url": "https://www.medizininformatik-initiative.de/fhir/ext/modul-biobank/StructureDefinition/KontaktRolle",
                "valueString": "Direktor"
              }
            ],
            "name": {
              "given": [
                "Koch"
              ],
              "prefix": [
                "Prof."
              ],
              "family": "Robert"
            },
            "telecom": [
              {
                "system": "email",
                "value": "robert.koch@charite.de"
              }
            ],
            "address": {
              "line": [
                "Südring 7"
              ],
              "postalCode": "13353",
              "city": "Berlin"
            },
            "purpose": {
              "coding": [
                {
                  "system": "https://www.medizininformatik-initiative.de/fhir/ext/modul-biobank/CodeSystem/ContactType",
                  "code": "RESEARCH"
                }
              ]
            }
          }
        ],
        "name": "Zentrale Biobank der Charité",
        "partOf": {
          "reference": "Organization/mii-exa-test-data-organization-charite"
        }
      }
    },
    {
      "request": {
        "method": "PUT",
        "url": "DiagnosticReport/mii-exa-test-data-patient-1-labreport-1"
      },
      "fullUrl": "https://www.medizininformatik-initiative.de/DiagnosticReport/mii-exa-test-data-patient-1-labreport-1",
      "resource": {
        "resourceType": "DiagnosticReport",
        "id": "mii-exa-test-data-patient-1-labreport-1",
        "meta": {
          "profile": [
            "https://www.medizininformatik-initiative.de/fhir/core/modul-labor/StructureDefinition/DiagnosticReportLab"
          ]
        },
        "identifier": [
          {
            "assigner": {
              "identifier": {
                "system": "https://www.medizininformatik-initiative.de/fhir/core/CodeSystem/core-location-identifier",
                "value": "Charité"
              }
            },
            "type": {
              "coding": [
                {
                  "system": "http://terminology.hl7.org/CodeSystem/v2-0203",
                  "code": "FILL"
                }
              ]
            },
            "system": "https://www.charite.de/fhir/sid/lab-results",
            "value": "LDR_000001"
          }
        ],
        "category": [
          {
            "coding": [
              {
                "system": "http://loinc.org",
                "code": "26436-6",
                "display": "Laboratory studies (set)"
              },
              {
                "system": "http://terminology.hl7.org/CodeSystem/v2-0074",
                "code": "LAB"
              }
            ]
          }
        ],
        "code": {
          "coding": [
            {
              "system": "http://loinc.org",
              "code": "11502-2",
              "display": "Laboratory report"
            }
          ]
        },
        "basedOn": [
          {
            "reference": "ServiceRequest/mii-exa-test-data-patient-1-labrequest-1"
          }
        ],
        "performer": [
          {
            "reference": "Organization/mii-exa-test-data-organization-labor-berlin"
          }
        ],
        "specimen": [
          {
            "reference": "Specimen/mii-exa-test-data-patient-1-specimen-1"
          }
        ],
        "result": [
          {
            "reference": "Observation/mii-exa-test-data-patient-1-labobs-1"
          },
          {
            "reference": "Observation/mii-exa-test-data-patient-1-labobs-2"
          },
          {
            "reference": "Observation/mii-exa-test-data-patient-1-labobs-3"
          },
          {
            "reference": "Observation/mii-exa-test-data-patient-1-labobs-4"
          },
          {
            "reference": "Observation/mii-exa-test-data-patient-1-labobs-5"
          },
          {
            "reference": "Observation/mii-exa-test-data-patient-1-labobs-6"
          }
        ],
        "status": "final",
        "subject": {
          "reference": "Patient/mii-exa-test-data-patient-1"
        },
        "encounter": {
          "reference": "Encounter/mii-exa-test-data-patient-1-encounter-1"
        },
        "effectiveDateTime": "2024-02-15T12:00:00+01:00",
        "issued": "2024-02-15T12:00:00+01:00",
        "conclusion": "Leukozyten hoch"
      }
    },
    {
      "request": {
        "method": "PUT",
        "url": "ServiceRequest/mii-exa-test-data-patient-1-labrequest-1"
      },
      "fullUrl": "https://www.medizininformatik-initiative.de/ServiceRequest/mii-exa-test-data-patient-1-labrequest-1",
      "resource": {
        "resourceType": "ServiceRequest",
        "id": "mii-exa-test-data-patient-1-labrequest-1",
        "meta": {
          "profile": [
            "https://www.medizininformatik-initiative.de/fhir/core/modul-labor/StructureDefinition/ServiceRequestLab"
          ]
        },
        "identifier": [
          {
            "assigner": {
              "identifier": {
                "system": "https://www.medizininformatik-initiative.de/fhir/core/CodeSystem/core-location-identifier",
                "value": "Charité"
              }
            },
            "type": {
              "coding": [
                {
                  "system": "http://terminology.hl7.org/CodeSystem/v2-0203",
                  "code": "PLAC"
                }
              ]
            },
            "system": "https://www.charite.de/fhir/sid/Laboranforderungen",
            "value": "LA_000001"
          }
        ],
        "category": [
          {
            "coding": [
              {
                "system": "http://terminology.hl7.org/CodeSystem/observation-category",
                "code": "laboratory"
              }
            ]
          }
        ],
        "code": {
          "coding": [
            {
              "code": "55429-5",
              "system": "http://loinc.org",
              "display": "Short blood count panel - Blood"
            }
          ],
          "text": "kleines Blutbild"
        },
        "specimen": [
          {
            "reference": "Specimen/mii-exa-test-data-patient-1-specimen-1"
          }
        ],
        "status": "completed",
        "intent": "order",
        "subject": {
          "reference": "Patient/mii-exa-test-data-patient-1"
        },
        "encounter": {
          "reference": "Encounter/mii-exa-test-data-patient-1-encounter-1"
        },
        "authoredOn": "2024-02-15T10:28:00+01:00"
      }
    },
    {
      "request": {
        "method": "PUT",
        "url": "Organization/mii-exa-test-data-organization-labor-berlin"
      },
      "fullUrl": "https://www.medizininformatik-initiative.de/Organization/mii-exa-test-data-organization-labor-berlin",
      "resource": {
        "resourceType": "Organization",
        "id": "mii-exa-test-data-organization-labor-berlin",
        "type": [
          {
            "coding": [
              {
                "code": "prov",
                "system": "http://terminology.hl7.org/CodeSystem/organization-type",
                "display": "Healthcare Provider"
              }
            ]
          }
        ],
        "name": "Labor Berlin – Charité Vivantes GmbH"
      }
    },
    {
      "request": {
        "method": "PUT",
        "url": "Observation/mii-exa-test-data-patient-1-labobs-1"
      },
      "fullUrl": "https://www.medizininformatik-initiative.de/Observation/mii-exa-test-data-patient-1-labobs-1",
      "resource": {
        "resourceType": "Observation",
        "id": "mii-exa-test-data-patient-1-labobs-1",
        "meta": {
          "profile": [
            "https://www.medizininformatik-initiative.de/fhir/core/modul-labor/StructureDefinition/ObservationLab"
          ]
        },
        "identifier": [
          {
            "assigner": {
              "identifier": {
                "system": "https://www.medizininformatik-initiative.de/fhir/core/CodeSystem/core-location-identifier",
                "value": "Charité"
              }
            },
            "type": {
              "coding": [
                {
                  "system": "http://terminology.hl7.org/CodeSystem/v2-0203",
                  "code": "OBI"
                }
              ]
            },
            "system": "https://www.charite.de/fhir/sid/lab-results",
            "value": "LO_000001"
          }
        ],
        "category": [
          {
            "coding": [
              {
                "system": "http://loinc.org",
                "code": "26436-6",
                "display": "Laboratory studies (set)"
              },
              {
                "system": "http://terminology.hl7.org/CodeSystem/observation-category",
                "code": "laboratory",
                "display": "Laboratory"
              }
            ]
          }
        ],
        "basedOn": [
          {
            "reference": "ServiceRequest/mii-exa-test-data-patient-1-labrequest-1"
          }
        ],
        "interpretation": [
          {
            "coding": [
              {
                "code": "H",
                "system": "http://terminology.hl7.org/CodeSystem/v3-ObservationInterpretation",
                "display": "High"
              }
            ]
          }
        ],
        "note": [
          {
            "text": "Leukozyten EDTA-Blut Impedanzmessung"
          }
        ],
        "referenceRange": [
          {
            "appliesTo": [
              {
                "coding": [
                  {
                    "code": "248153007",
                    "system": "http://snomed.info/sct",
                    "version": "http://snomed.info/sct/900000000000207008/version/20230731",
                    "display": "Male (finding)"
                  }
                ]
              }
            ],
            "age": {
              "low": {
                "value": 18,
                "code": "a",
                "system": "http://unitsofmeasure.org",
                "unit": "year"
              },
              "high": {
                "value": 65,
                "code": "a",
                "system": "http://unitsofmeasure.org",
                "unit": "year"
              }
            },
            "low": {
              "value": 3.9,
              "code": "/nL",
              "system": "http://unitsofmeasure.org",
              "unit": "/nanoliter"
            },
            "high": {
              "value": 10.5,
              "code": "/nL",
              "system": "http://unitsofmeasure.org",
              "unit": "/nanoliter"
            },
            "type": {
              "coding": [
                {
                  "code": "normal",
                  "system": "http://terminology.hl7.org/CodeSystem/referencerange-meaning",
                  "display": "Normal Range"
                }
              ]
            }
          }
        ],
        "valueQuantity": {
          "system": "http://unitsofmeasure.org",
          "value": 17,
          "code": "/nL",
          "unit": "/nanoliter"
        },
        "status": "final",
        "code": {
          "coding": [
            {
              "code": "26464-8",
              "system": "http://loinc.org",
              "display": "Leukocytes [#/volume] in Blood"
            }
          ]
        },
        "subject": {
          "reference": "Patient/mii-exa-test-data-patient-1"
        },
        "encounter": {
          "reference": "Encounter/mii-exa-test-data-patient-1-encounter-1"
        },
        "effectiveDateTime": "2024-02-15T12:00:00+01:00",
        "issued": "2024-02-15T12:00:00+01:00",
        "method": {
          "coding": [
            {
              "code": "703452004",
              "system": "http://snomed.info/sct",
              "version": "http://snomed.info/sct/900000000000207008/version/20230731",
              "display": "Electrical impedance technique (qualifier value)"
            }
          ]
        },
        "specimen": {
          "reference": "Specimen/mii-exa-test-data-patient-1-specimen-1"
        },
        "device": {
          "reference": "Device/mii-exa-test-data-device-roche-cobas-c303"
        }
      }
    },
    {
      "request": {
        "method": "PUT",
        "url": "Observation/mii-exa-test-data-patient-1-labobs-2"
      },
      "fullUrl": "https://www.medizininformatik-initiative.de/Observation/mii-exa-test-data-patient-1-labobs-2",
      "resource": {
        "resourceType": "Observation",
        "id": "mii-exa-test-data-patient-1-labobs-2",
        "meta": {
          "profile": [
            "https://www.medizininformatik-initiative.de/fhir/core/modul-labor/StructureDefinition/ObservationLab"
          ]
        },
        "identifier": [
          {
            "assigner": {
              "identifier": {
                "system": "https://www.medizininformatik-initiative.de/fhir/core/CodeSystem/core-location-identifier",
                "value": "Charité"
              }
            },
            "type": {
              "coding": [
                {
                  "system": "http://terminology.hl7.org/CodeSystem/v2-0203",
                  "code": "OBI"
                }
              ]
            },
            "system": "https://www.charite.de/fhir/sid/lab-results",
            "value": "LO_000002"
          }
        ],
        "category": [
          {
            "coding": [
              {
                "system": "http://loinc.org",
                "code": "26436-6",
                "display": "Laboratory studies (set)"
              },
              {
                "system": "http://terminology.hl7.org/CodeSystem/observation-category",
                "code": "laboratory",
                "display": "Laboratory"
              }
            ]
          }
        ],
        "basedOn": [
          {
            "reference": "ServiceRequest/mii-exa-test-data-patient-1-labrequest-1"
          }
        ],
        "interpretation": [
          {
            "coding": [
              {
                "code": "N",
                "system": "http://terminology.hl7.org/CodeSystem/v3-ObservationInterpretation",
                "display": "Normal"
              }
            ]
          }
        ],
        "note": [
          {
            "text": "Erythrozyten EDTA-Blut Impedanzmessung"
          }
        ],
        "referenceRange": [
          {
            "appliesTo": [
              {
                "coding": [
                  {
                    "code": "248153007",
                    "system": "http://snomed.info/sct",
                    "version": "http://snomed.info/sct/900000000000207008/version/20230731",
                    "display": "Male (finding)"
                  }
                ]
              }
            ],
            "age": {
              "low": {
                "value": 18,
                "code": "a",
                "system": "http://unitsofmeasure.org",
                "unit": "year"
              },
              "high": {
                "value": 65,
                "code": "a",
                "system": "http://unitsofmeasure.org",
                "unit": "year"
              }
            },
            "low": {
              "value": 4.3,
              "code": "/pL",
              "system": "http://unitsofmeasure.org",
              "unit": "/picoliter"
            },
            "high": {
              "value": 5.8,
              "code": "/pL",
              "system": "http://unitsofmeasure.org",
              "unit": "/picoliter"
            },
            "type": {
              "coding": [
                {
                  "code": "normal",
                  "system": "http://terminology.hl7.org/CodeSystem/referencerange-meaning",
                  "display": "Normal Range"
                }
              ]
            }
          }
        ],
        "valueQuantity": {
          "system": "http://unitsofmeasure.org",
          "value": 5,
          "code": "/pL",
          "unit": "/nanoLiters"
        },
        "status": "final",
        "code": {
          "coding": [
            {
              "code": "26453-1",
              "system": "http://loinc.org",
              "display": "Erythrocytes [#/volume] in Blood"
            }
          ]
        },
        "subject": {
          "reference": "Patient/mii-exa-test-data-patient-1"
        },
        "encounter": {
          "reference": "Encounter/mii-exa-test-data-patient-1-encounter-1"
        },
        "effectiveDateTime": "2024-02-15T12:00:00+01:00",
        "issued": "2024-02-15T12:00:00+01:00",
        "method": {
          "coding": [
            {
              "code": "703452004",
              "system": "http://snomed.info/sct",
              "version": "http://snomed.info/sct/900000000000207008/version/20230731",
              "display": "Electrical impedance technique (qualifier value)"
            }
          ]
        },
        "specimen": {
          "reference": "Specimen/mii-exa-test-data-patient-1-specimen-1"
        },
        "device": {
          "reference": "Device/mii-exa-test-data-device-roche-cobas-c303"
        }
      }
    },
    {
      "request": {
        "method": "PUT",
        "url": "Observation/mii-exa-test-data-patient-1-labobs-3"
      },
      "fullUrl": "https://www.medizininformatik-initiative.de/Observation/mii-exa-test-data-patient-1-labobs-3",
      "resource": {
        "resourceType": "Observation",
        "id": "mii-exa-test-data-patient-1-labobs-3",
        "meta": {
          "profile": [
            "https://www.medizininformatik-initiative.de/fhir/core/modul-labor/StructureDefinition/ObservationLab"
          ]
        },
        "identifier": [
          {
            "assigner": {
              "identifier": {
                "system": "https://www.medizininformatik-initiative.de/fhir/core/CodeSystem/core-location-identifier",
                "value": "Charité"
              }
            },
            "type": {
              "coding": [
                {
                  "system": "http://terminology.hl7.org/CodeSystem/v2-0203",
                  "code": "OBI"
                }
              ]
            },
            "system": "https://www.charite.de/fhir/sid/lab-results",
            "value": "LO_000003"
          }
        ],
        "category": [
          {
            "coding": [
              {
                "system": "http://loinc.org",
                "code": "26436-6",
                "display": "Laboratory studies (set)"
              },
              {
                "system": "http://terminology.hl7.org/CodeSystem/observation-category",
                "code": "laboratory",
                "display": "Laboratory"
              }
            ]
          }
        ],
        "basedOn": [
          {
            "reference": "ServiceRequest/mii-exa-test-data-patient-1-labrequest-1"
          }
        ],
        "interpretation": [
          {
            "coding": [
              {
                "code": "N",
                "system": "http://terminology.hl7.org/CodeSystem/v3-ObservationInterpretation",
                "display": "Normal"
              }
            ]
          }
        ],
        "note": [
          {
            "text": "Hämatokrit EDTA-Blut Impedanzmessung"
          }
        ],
        "referenceRange": [
          {
            "appliesTo": [
              {
                "coding": [
                  {
                    "code": "248153007",
                    "system": "http://snomed.info/sct",
                    "version": "http://snomed.info/sct/900000000000207008/version/20230731",
                    "display": "Male (finding)"
                  }
                ]
              }
            ],
            "age": {
              "low": {
                "value": 18,
                "code": "a",
                "system": "http://unitsofmeasure.org",
                "unit": "year"
              },
              "high": {
                "value": 65,
                "code": "a",
                "system": "http://unitsofmeasure.org",
                "unit": "year"
              }
            },
            "low": {
              "value": 40,
              "code": "%",
              "system": "http://unitsofmeasure.org",
              "unit": "percent"
            },
            "high": {
              "value": 51,
              "code": "%",
              "system": "http://unitsofmeasure.org",
              "unit": "percent"
            },
            "type": {
              "coding": [
                {
                  "code": "normal",
                  "system": "http://terminology.hl7.org/CodeSystem/referencerange-meaning",
                  "display": "Normal Range"
                }
              ]
            }
          }
        ],
        "valueQuantity": {
          "system": "http://unitsofmeasure.org",
          "value": 45,
          "code": "%",
          "unit": "percent"
        },
        "status": "final",
        "code": {
          "coding": [
            {
              "code": "20570-8",
              "system": "http://loinc.org",
              "display": "Hematocrit [Volume Fraction] of Blood"
            }
          ]
        },
        "subject": {
          "reference": "Patient/mii-exa-test-data-patient-1"
        },
        "encounter": {
          "reference": "Encounter/mii-exa-test-data-patient-1-encounter-1"
        },
        "effectiveDateTime": "2024-02-15T12:00:00+01:00",
        "issued": "2024-02-15T12:00:00+01:00",
        "method": {
          "coding": [
            {
              "code": "703452004",
              "system": "http://snomed.info/sct",
              "version": "http://snomed.info/sct/900000000000207008/version/20230731",
              "display": "Electrical impedance technique (qualifier value)"
            }
          ]
        },
        "specimen": {
          "reference": "Specimen/mii-exa-test-data-patient-1-specimen-1"
        },
        "device": {
          "reference": "Device/mii-exa-test-data-device-roche-cobas-c303"
        }
      }
    },
    {
      "request": {
        "method": "PUT",
        "url": "Observation/mii-exa-test-data-patient-1-labobs-4"
      },
      "fullUrl": "https://www.medizininformatik-initiative.de/Observation/mii-exa-test-data-patient-1-labobs-4",
      "resource": {
        "resourceType": "Observation",
        "id": "mii-exa-test-data-patient-1-labobs-4",
        "meta": {
          "profile": [
            "https://www.medizininformatik-initiative.de/fhir/core/modul-labor/StructureDefinition/ObservationLab"
          ]
        },
        "identifier": [
          {
            "assigner": {
              "identifier": {
                "system": "https://www.medizininformatik-initiative.de/fhir/core/CodeSystem/core-location-identifier",
                "value": "Charité"
              }
            },
            "type": {
              "coding": [
                {
                  "system": "http://terminology.hl7.org/CodeSystem/v2-0203",
                  "code": "OBI"
                }
              ]
            },
            "system": "https://www.charite.de/fhir/sid/lab-results",
            "value": "LO_000004"
          }
        ],
        "category": [
          {
            "coding": [
              {
                "system": "http://loinc.org",
                "code": "26436-6",
                "display": "Laboratory studies (set)"
              },
              {
                "system": "http://terminology.hl7.org/CodeSystem/observation-category",
                "code": "laboratory",
                "display": "Laboratory"
              }
            ]
          }
        ],
        "basedOn": [
          {
            "reference": "ServiceRequest/mii-exa-test-data-patient-1-labrequest-1"
          }
        ],
        "interpretation": [
          {
            "coding": [
              {
                "code": "N",
                "system": "http://terminology.hl7.org/CodeSystem/v3-ObservationInterpretation",
                "display": "Normal"
              }
            ]
          }
        ],
        "note": [
          {
            "text": "Hämoglobin EDTA-Blut Photometrie"
          }
        ],
        "referenceRange": [
          {
            "appliesTo": [
              {
                "coding": [
                  {
                    "code": "248153007",
                    "system": "http://snomed.info/sct",
                    "version": "http://snomed.info/sct/900000000000207008/version/20230731",
                    "display": "Male (finding)"
                  }
                ]
              }
            ],
            "age": {
              "low": {
                "value": 18,
                "code": "a",
                "system": "http://unitsofmeasure.org",
                "unit": "year"
              },
              "high": {
                "value": 65,
                "code": "a",
                "system": "http://unitsofmeasure.org",
                "unit": "year"
              }
            },
            "low": {
              "value": 13.5,
              "code": "g/dL",
              "system": "http://unitsofmeasure.org",
              "unit": "gram per deciliter"
            },
            "high": {
              "value": 17,
              "code": "g/dL",
              "system": "http://unitsofmeasure.org",
              "unit": "gram per deciliter"
            },
            "type": {
              "coding": [
                {
                  "code": "normal",
                  "system": "http://terminology.hl7.org/CodeSystem/referencerange-meaning",
                  "display": "Normal Range"
                }
              ]
            }
          }
        ],
        "valueQuantity": {
          "system": "http://unitsofmeasure.org",
          "value": 45,
          "code": "g/dL",
          "unit": "gram per deciliter"
        },
        "status": "final",
        "code": {
          "coding": [
            {
              "code": "718-7",
              "system": "http://loinc.org",
              "display": "Hemoglobin [Mass/volume] in Blood"
            }
          ]
        },
        "subject": {
          "reference": "Patient/mii-exa-test-data-patient-1"
        },
        "encounter": {
          "reference": "Encounter/mii-exa-test-data-patient-1-encounter-1"
        },
        "effectiveDateTime": "2024-02-15T12:00:00+01:00",
        "issued": "2024-02-15T12:00:00+01:00",
        "method": {
          "coding": [
            {
              "code": "83561000052101",
              "system": "http://snomed.info/sct",
              "version": "http://snomed.info/sct/900000000000207008/version/20230731",
              "display": "Photometry technique (qualifier value)"
            }
          ]
        },
        "specimen": {
          "reference": "Specimen/mii-exa-test-data-patient-1-specimen-1"
        },
        "device": {
          "reference": "Device/mii-exa-test-data-device-roche-cobas-c303"
        }
      }
    },
    {
      "request": {
        "method": "PUT",
        "url": "Observation/mii-exa-test-data-patient-1-labobs-5"
      },
      "fullUrl": "https://www.medizininformatik-initiative.de/Observation/mii-exa-test-data-patient-1-labobs-5",
      "resource": {
        "resourceType": "Observation",
        "id": "mii-exa-test-data-patient-1-labobs-5",
        "meta": {
          "profile": [
            "https://www.medizininformatik-initiative.de/fhir/core/modul-labor/StructureDefinition/ObservationLab"
          ]
        },
        "identifier": [
          {
            "assigner": {
              "identifier": {
                "system": "https://www.medizininformatik-initiative.de/fhir/core/CodeSystem/core-location-identifier",
                "value": "Charité"
              }
            },
            "type": {
              "coding": [
                {
                  "system": "http://terminology.hl7.org/CodeSystem/v2-0203",
                  "code": "OBI"
                }
              ]
            },
            "system": "https://www.charite.de/fhir/sid/lab-results",
            "value": "LO_000005"
          }
        ],
        "category": [
          {
            "coding": [
              {
                "system": "http://loinc.org",
                "code": "26436-6",
                "display": "Laboratory studies (set)"
              },
              {
                "system": "http://terminology.hl7.org/CodeSystem/observation-category",
                "code": "laboratory",
                "display": "Laboratory"
              }
            ]
          }
        ],
        "basedOn": [
          {
            "reference": "ServiceRequest/mii-exa-test-data-patient-1-labrequest-1"
          }
        ],
        "interpretation": [
          {
            "coding": [
              {
                "code": "N",
                "system": "http://terminology.hl7.org/CodeSystem/v3-ObservationInterpretation",
                "display": "Normal"
              }
            ]
          }
        ],
        "note": [
          {
            "text": "Thrombozyten EDTA-Blut Impedanzmessung"
          }
        ],
        "referenceRange": [
          {
            "appliesTo": [
              {
                "coding": [
                  {
                    "code": "248153007",
                    "system": "http://snomed.info/sct",
                    "version": "http://snomed.info/sct/900000000000207008/version/20230731",
                    "display": "Male (finding)"
                  }
                ]
              }
            ],
            "age": {
              "low": {
                "value": 18,
                "code": "a",
                "system": "http://unitsofmeasure.org",
                "unit": "year"
              },
              "high": {
                "value": 65,
                "code": "a",
                "system": "http://unitsofmeasure.org",
                "unit": "year"
              }
            },
            "low": {
              "value": 150,
              "code": "/nL",
              "system": "http://unitsofmeasure.org",
              "unit": "/nanoliter"
            },
            "high": {
              "value": 370,
              "code": "/nL",
              "system": "http://unitsofmeasure.org",
              "unit": "/nanoliter"
            },
            "type": {
              "coding": [
                {
                  "code": "normal",
                  "system": "http://terminology.hl7.org/CodeSystem/referencerange-meaning",
                  "display": "Normal Range"
                }
              ]
            }
          }
        ],
        "valueQuantity": {
          "system": "http://unitsofmeasure.org",
          "value": 355,
          "code": "/nL",
          "unit": "/nanoliter"
        },
        "status": "final",
        "code": {
          "coding": [
            {
              "code": "26515-7",
              "system": "http://loinc.org",
              "display": "Platelets [#/volume] in Blood"
            }
          ]
        },
        "subject": {
          "reference": "Patient/mii-exa-test-data-patient-1"
        },
        "encounter": {
          "reference": "Encounter/mii-exa-test-data-patient-1-encounter-1"
        },
        "effectiveDateTime": "2024-02-15T12:00:00+01:00",
        "issued": "2024-02-15T12:00:00+01:00",
        "method": {
          "coding": [
            {
              "code": "703452004",
              "system": "http://snomed.info/sct",
              "version": "http://snomed.info/sct/900000000000207008/version/20230731",
              "display": "Electrical impedance technique (qualifier value)"
            }
          ]
        },
        "specimen": {
          "reference": "Specimen/mii-exa-test-data-patient-1-specimen-1"
        },
        "device": {
          "reference": "Device/mii-exa-test-data-device-roche-cobas-c303"
        }
      }
    },
    {
      "request": {
        "method": "PUT",
        "url": "Observation/mii-exa-test-data-patient-1-labobs-6"
      },
      "fullUrl": "https://www.medizininformatik-initiative.de/Observation/mii-exa-test-data-patient-1-labobs-6",
      "resource": {
        "resourceType": "Observation",
        "id": "mii-exa-test-data-patient-1-labobs-6",
        "meta": {
          "profile": [
            "https://www.medizininformatik-initiative.de/fhir/core/modul-labor/StructureDefinition/ObservationLab"
          ]
        },
        "identifier": [
          {
            "assigner": {
              "identifier": {
                "system": "https://www.medizininformatik-initiative.de/fhir/core/CodeSystem/core-location-identifier",
                "value": "Charité"
              }
            },
            "type": {
              "coding": [
                {
                  "system": "http://terminology.hl7.org/CodeSystem/v2-0203",
                  "code": "OBI"
                }
              ]
            },
            "system": "https://www.charite.de/fhir/sid/lab-results",
            "value": "LO_000006"
          }
        ],
        "category": [
          {
            "coding": [
              {
                "system": "http://loinc.org",
                "code": "26436-6",
                "display": "Laboratory studies (set)"
              },
              {
                "system": "http://terminology.hl7.org/CodeSystem/observation-category",
                "code": "laboratory",
                "display": "Laboratory"
              }
            ]
          }
        ],
        "basedOn": [
          {
            "reference": "ServiceRequest/mii-exa-test-data-patient-1-labrequest-1"
          }
        ],
        "status": "final",
        "code": {
          "coding": [
            {
              "code": "788-0",
              "system": "http://loinc.org",
              "display": "Erythrocyte distribution width [Ratio] by Automated count"
            }
          ]
        },
        "subject": {
          "reference": "Patient/mii-exa-test-data-patient-1"
        },
        "encounter": {
          "reference": "Encounter/mii-exa-test-data-patient-1-encounter-1"
        },
        "effectiveDateTime": "2024-02-15T12:00:00+01:00",
        "issued": "2024-02-15T12:00:00+01:00",
        "dataAbsentReason": {
          "coding": [
            {
              "code": "not-performed",
              "system": "http://terminology.hl7.org/CodeSystem/data-absent-reason",
              "display": "Not Performed"
            }
          ]
        }
      }
    },
    {
      "request": {
        "method": "PUT",
        "url": "DiagnosticReport/mii-exa-test-data-patient-1-mibi-befund-1"
      },
      "fullUrl": "https://www.medizininformatik-initiative.de/DiagnosticReport/mii-exa-test-data-patient-1-mibi-befund-1",
      "resource": {
        "resourceType": "DiagnosticReport",
        "id": "mii-exa-test-data-patient-1-mibi-befund-1",
        "meta": {
          "profile": [
            "https://www.medizininformatik-initiative.de/fhir/modul-mikrobio/StructureDefinition/mii-pr-mikrobio-diagnostic-report"
          ]
        },
        "identifier": [
          {
            "assigner": {
              "identifier": {
                "system": "https://www.medizininformatik-initiative.de/fhir/core/CodeSystem/core-location-identifier",
                "value": "Charité"
              }
            },
            "type": {
              "coding": [
                {
                  "system": "http://terminology.hl7.org/CodeSystem/v2-0203",
                  "code": "FILL"
                }
              ]
            },
            "system": "https://www.charite.de/fhir/sid/lab-results",
            "value": "MiBiDR_000001"
          }
        ],
        "basedOn": [
          {
            "reference": "ServiceRequest/mii-exa-test-data-patient-1-labrequest-2"
          }
        ],
        "category": [
          {
            "coding": [
              {
                "system": "http://loinc.org",
                "code": "26436-6",
                "display": "Laboratory studies (set)"
              },
              {
                "system": "http://terminology.hl7.org/CodeSystem/v2-0074",
                "code": "LAB"
              },
              {
                "system": "http://snomed.info/sct",
                "code": "4341000179107",
                "version": "http://snomed.info/sct/900000000000207008/version/20230731"
              }
            ]
          }
        ],
        "code": {
          "coding": [
            {
              "system": "http://loinc.org",
              "code": "11502-2",
              "display": "Laboratory report"
            }
          ]
        },
        "performer": [
          {
            "reference": "Organization/mii-exa-test-data-organization-labor-berlin"
          }
        ],
        "specimen": [
          {
            "reference": "Specimen/mii-exa-test-data-patient-1-specimen-2"
          }
        ],
        "result": [
          {
            "reference": "Observation/mii-exa-test-data-patient-1-kulturnachweis-1"
          }
        ],
        "status": "final",
        "subject": {
          "reference": "Patient/mii-exa-test-data-patient-1"
        },
        "encounter": {
          "reference": "Encounter/mii-exa-test-data-patient-1-encounter-1"
        },
        "effectiveDateTime": "2024-02-16T16:15:00+01:00",
        "issued": "2024-02-16T16:15:00+01:00"
      }
    },
    {
      "request": {
        "method": "PUT",
        "url": "ServiceRequest/mii-exa-test-data-patient-1-labrequest-2"
      },
      "fullUrl": "https://www.medizininformatik-initiative.de/ServiceRequest/mii-exa-test-data-patient-1-labrequest-2",
      "resource": {
        "resourceType": "ServiceRequest",
        "id": "mii-exa-test-data-patient-1-labrequest-2",
        "meta": {
          "profile": [
            "https://www.medizininformatik-initiative.de/fhir/core/modul-labor/StructureDefinition/ServiceRequestLab"
          ]
        },
        "identifier": [
          {
            "assigner": {
              "identifier": {
                "system": "https://www.medizininformatik-initiative.de/fhir/core/CodeSystem/core-location-identifier",
                "value": "Charité"
              }
            },
            "type": {
              "coding": [
                {
                  "system": "http://terminology.hl7.org/CodeSystem/v2-0203",
                  "code": "PLAC"
                }
              ]
            },
            "system": "https://www.charite.de/fhir/sid/Laboranforderungen",
            "value": "MiBiA_000001"
          }
        ],
        "category": [
          {
            "coding": [
              {
                "system": "http://terminology.hl7.org/CodeSystem/observation-category",
                "code": "laboratory"
              }
            ]
          }
        ],
        "specimen": [
          {
            "reference": "Specimen/mii-exa-test-data-patient-1-specimen-2"
          }
        ],
        "status": "completed",
        "intent": "order",
        "code": {
          "coding": [
            {
              "code": "11475-1",
              "system": "http://loinc.org",
              "display": "Microorganism identified in Specimen by Culture"
            }
          ]
        },
        "subject": {
          "reference": "Patient/mii-exa-test-data-patient-1"
        },
        "encounter": {
          "reference": "Encounter/mii-exa-test-data-patient-1-encounter-1"
        },
        "authoredOn": "2024-02-14T14:15:00+01:00"
      }
    },
    {
      "request": {
        "method": "PUT",
        "url": "Specimen/mii-exa-test-data-patient-1-specimen-2"
      },
      "fullUrl": "https://www.medizininformatik-initiative.de/Specimen/mii-exa-test-data-patient-1-specimen-2",
      "resource": {
        "resourceType": "Specimen",
        "id": "mii-exa-test-data-patient-1-specimen-2",
        "meta": {
          "profile": [
            "https://www.medizininformatik-initiative.de/fhir/ext/modul-biobank/StructureDefinition/Specimen"
          ]
        },
        "extension": [
          {
            "url": "https://www.medizininformatik-initiative.de/fhir/ext/modul-biobank/StructureDefinition/VerwaltendeOrganisation",
            "valueReference": {
              "reference": "Organization/mii-exa-test-data-organization-biobank-charite"
            }
          }
        ],
        "identifier": [
          {
            "system": "https://www.charite.de/fhir/sid/Bioproben",
            "value": "BP_000002"
          }
        ],
        "type": {
          "coding": [
            {
              "code": "258503004",
              "system": "http://snomed.info/sct",
              "version": "http://snomed.info/sct/900000000000207008/version/20230731",
              "display": "Skin swab (specimen)"
            }
          ]
        },
        "collection": {
          "bodySite": {
            "coding": [
              {
                "code": "45206002",
                "system": "http://snomed.info/sct",
                "version": "http://snomed.info/sct/900000000000207008/version/20230731",
                "display": "Nasal structure (body structure)"
              }
            ]
          },
          "collectedDateTime": "2024-02-14T15:00:00+01:00"
        },
        "container": [
          {
            "type": {
              "coding": [
                {
                  "code": "83059008",
                  "system": "http://snomed.info/sct",
                  "version": "http://snomed.info/sct/900000000000207008/version/20230731",
                  "display": "Tube, device (physical object)"
                }
              ]
            }
          }
        ],
        "status": "available",
        "subject": {
          "reference": "Patient/mii-exa-test-data-patient-1"
        }
      }
    },
    {
      "request": {
        "method": "PUT",
        "url": "Observation/mii-exa-test-data-patient-1-kulturnachweis-1"
      },
      "fullUrl": "https://www.medizininformatik-initiative.de/Observation/mii-exa-test-data-patient-1-kulturnachweis-1",
      "resource": {
        "resourceType": "Observation",
        "id": "mii-exa-test-data-patient-1-kulturnachweis-1",
        "meta": {
          "profile": [
            "https://www.medizininformatik-initiative.de/fhir/modul-mikrobio/StructureDefinition/mii-pr-mikrobio-kultur-nachweis"
          ]
        },
        "identifier": [
          {
            "assigner": {
              "identifier": {
                "system": "https://www.medizininformatik-initiative.de/fhir/core/CodeSystem/core-location-identifier",
                "value": "Charité"
              }
            },
            "type": {
              "coding": [
                {
                  "system": "http://terminology.hl7.org/CodeSystem/v2-0203",
                  "code": "OBI"
                }
              ]
            },
            "system": "https://www.charite.de/fhir/sid/lab-results",
            "value": "MiBiKN_000001"
          }
        ],
        "category": [
          {
            "coding": [
              {
                "system": "http://loinc.org",
                "code": "26436-6",
                "display": "Laboratory studies (set)"
              },
              {
                "system": "http://terminology.hl7.org/CodeSystem/observation-category",
                "code": "laboratory",
                "display": "Laboratory"
              },
              {
                "system": "http://loinc.org",
                "code": "18725-2",
                "display": "Microbiology studies"
              }
            ]
          }
        ],
        "component": [
          {
            "code": {
              "coding": [
                {
                  "system": "http://loinc.org",
                  "code": "89248-9",
                  "display": "Microorganism identified event index case"
                }
              ]
            },
            "valueCodeableConcept": {
              "coding": [
                {
                  "code": "115329001",
                  "system": "http://snomed.info/sct",
                  "version": "http://snomed.info/sct/900000000000207008/version/20230731",
                  "display": "Methicillin resistant Staphylococcus aureus"
                }
              ]
            }
          }
        ],
        "code": {
          "coding": [
            {
              "system": "http://loinc.org",
              "code": "11475-1",
              "display": "Microorganism identified in Specimen by Culture"
            }
          ]
        },
        "status": "final",
        "subject": {
          "reference": "Patient/mii-exa-test-data-patient-1"
        },
        "encounter": {
          "reference": "Encounter/mii-exa-test-data-patient-1-encounter-1"
        },
        "effectiveDateTime": "2024-02-16T16:15:00+01:00",
        "issued": "2024-02-16T16:15:00+01:00",
        "valueCodeableConcept": {
          "coding": [
            {
              "code": "260373001",
              "system": "http://snomed.info/sct",
              "version": "http://snomed.info/sct/900000000000207008/version/20230731",
              "display": "Detected (qualifier value)"
            }
          ]
        },
        "method": {
          "coding": [
            {
              "code": "61594008",
              "system": "http://snomed.info/sct",
              "version": "http://snomed.info/sct/900000000000207008/version/20230731",
              "display": "Microbial culture (procedure)"
            }
          ]
        },
        "specimen": {
          "reference": "Specimen/mii-exa-test-data-patient-1-specimen-2"
        }
      }
    },
    {
      "request": {
        "method": "PUT",
        "url": "Patient/mii-exa-test-data-patient-2"
      },
      "fullUrl": "https://www.medizininformatik-initiative.de/Patient/mii-exa-test-data-patient-2",
      "resource": {
        "resourceType": "Patient",
        "id": "mii-exa-test-data-patient-2",
        "meta": {
          "profile": [
            "https://www.medizininformatik-initiative.de/fhir/core/modul-person/StructureDefinition/Patient",
            "http://fhir.de/ConsentManagement/StructureDefinition/Patient"
          ]
        },
        "identifier": [
          {
            "assigner": {
              "identifier": {
                "type": {
                  "coding": [
                    {
                      "code": "XX",
                      "system": "http://terminology.hl7.org/CodeSystem/v2-0203"
                    }
                  ]
                },
                "system": "http://fhir.de/sid/arge-ik/iknr",
                "value": "123456789"
              }
            },
            "use": "official",
            "type": {
              "coding": [
                {
                  "code": "GKV",
                  "system": "http://fhir.de/CodeSystem/identifier-type-de-basis"
                }
              ]
            },
            "system": "http://fhir.de/sid/gkv/kvid-10",
            "value": "B23456789"
          },
          {
            "assigner": {
              "identifier": {
                "type": {
                  "coding": [
                    {
                      "code": "XX",
                      "system": "http://terminology.hl7.org/CodeSystem/v2-0203"
                    }
                  ]
                },
                "system": "https://www.medizininformatik-initiative.de/fhir/core/CodeSystem/core-location-identifier",
                "value": "Charité"
              }
            },
            "type": {
              "coding": [
                {
                  "code": "MR",
                  "system": "http://terminology.hl7.org/CodeSystem/v2-0203"
                }
              ]
            },
            "system": "https://www.charite.de/fhir/sid/patientenidentifikation",
            "value": "147725268"
          }
        ],
        "gender": "other",
        "_gender": {
          "extension": [
            {
              "url": "http://fhir.de/StructureDefinition/gender-amtlich-de",
              "valueCoding": {
                "code": "D",
                "system": "http://fhir.de/CodeSystem/gender-amtlich-de"
              }
            }
          ]
        },
        "birthDate": "2000-06-30",
        "deceasedBoolean": true
      }
    },
    {
      "request": {
        "method": "PUT",
        "url": "Consent/mii-exa-test-data-patient-2-consent-1"
      },
      "fullUrl": "https://www.medizininformatik-initiative.de/Consent/mii-exa-test-data-patient-2-consent-1",
      "resource": {
        "resourceType": "Consent",
        "id": "mii-exa-test-data-patient-2-consent-1",
        "meta": {
          "profile": [
            "https://www.medizininformatik-initiative.de/fhir/modul-consent/StructureDefinition/mii-pr-consent-einwilligung"
          ]
        },
        "category": [
          {
            "coding": [
              {
                "system": "http://loinc.org",
                "code": "57016-8"
              }
            ]
          },
          {
            "coding": [
              {
                "code": "2.16.840.1.113883.3.1937.777.24.2.184",
                "system": "https://www.medizininformatik-initiative.de/fhir/modul-consent/CodeSystem/mii-cs-consent-consent_category"
              }
            ]
          }
        ],
        "organization": [
          {
            "reference": "Organization/mii-exa-test-data-organization-charite"
          }
        ],
        "policy": [
          {
            "uri": "urn:oid:2.16.840.1.113883.3.1937.777.24.2.1791"
          }
        ],
        "provision": {
          "period": {
            "start": "2024-03-14",
            "end": "2054-02-28"
          },
          "provision": [
            {
              "period": {
                "start": "2024-03-14",
                "end": "2054-02-28"
              },
              "code": [
                {
                  "coding": [
                    {
                      "code": "2.16.840.1.113883.3.1937.777.24.5.3.6",
                      "system": "urn:oid:2.16.840.1.113883.3.1937.777.24.5.3",
                      "display": "MDAT erheben"
                    }
                  ]
                }
              ],
              "type": "permit"
            },
            {
              "period": {
                "start": "2024-03-14",
                "end": "2054-02-28"
              },
              "code": [
                {
                  "coding": [
                    {
                      "code": "2.16.840.1.113883.3.1937.777.24.5.3.7",
                      "system": "urn:oid:2.16.840.1.113883.3.1937.777.24.5.3",
                      "display": "MDAT speichern, verarbeiten"
                    }
                  ]
                }
              ],
              "type": "permit"
            },
            {
              "period": {
                "start": "2024-03-14",
                "end": "2054-02-28"
              },
              "code": [
                {
                  "coding": [
                    {
                      "code": "2.16.840.1.113883.3.1937.777.24.5.3.8",
                      "system": "urn:oid:2.16.840.1.113883.3.1937.777.24.5.3",
                      "display": "MDAT wissenschaftlich nutzen EU DSGVO NIVEAU"
                    }
                  ]
                }
              ],
              "type": "permit"
            },
            {
              "period": {
                "start": "2024-03-14",
                "end": "2054-02-28"
              },
              "code": [
                {
                  "coding": [
                    {
                      "code": "2.16.840.1.113883.3.1937.777.24.5.3.19",
                      "system": "urn:oid:2.16.840.1.113883.3.1937.777.24.5.3",
                      "display": "BIOMAT erheben"
                    }
                  ]
                }
              ],
              "type": "permit"
            },
            {
              "period": {
                "start": "2024-03-14",
                "end": "2054-02-28"
              },
              "code": [
                {
                  "coding": [
                    {
                      "code": "2.16.840.1.113883.3.1937.777.24.5.3.20",
                      "system": "urn:oid:2.16.840.1.113883.3.1937.777.24.5.3",
                      "display": "BIOMAT lagern verarbeiten"
                    }
                  ]
                }
              ],
              "type": "permit"
            },
            {
              "period": {
                "start": "2024-03-14",
                "end": "2054-02-28"
              },
              "code": [
                {
                  "coding": [
                    {
                      "code": "2.16.840.1.113883.3.1937.777.24.5.3.22",
                      "system": "urn:oid:2.16.840.1.113883.3.1937.777.24.5.3",
                      "display": "BIOMAT wissenschaftlich nutzen EU DSGVO NIVEAU"
                    }
                  ]
                }
              ],
              "type": "permit"
            }
          ],
          "type": "deny"
        },
        "scope": {
          "coding": [
            {
              "system": "http://terminology.hl7.org/CodeSystem/consentscope",
              "code": "research"
            }
          ]
        },
        "status": "active",
        "patient": {
          "reference": "Patient/mii-exa-test-data-patient-2"
        },
        "dateTime": "2024-03-14T11:00:00+01:00"
      }
    },
    {
      "request": {
        "method": "PUT",
        "url": "Observation/mii-exa-test-data-patient-2-vitalstatus-1"
      },
      "fullUrl": "https://www.medizininformatik-initiative.de/Observation/mii-exa-test-data-patient-2-vitalstatus-1",
      "resource": {
        "resourceType": "Observation",
        "id": "mii-exa-test-data-patient-2-vitalstatus-1",
        "meta": {
          "profile": [
            "https://www.medizininformatik-initiative.de/fhir/core/modul-person/StructureDefinition/Vitalstatus"
          ]
        },
        "category": [
          {
            "coding": [
              {
                "system": "http://terminology.hl7.org/CodeSystem/observation-category",
                "code": "survey"
              }
            ]
          }
        ],
        "status": "final",
        "code": {
          "coding": [
            {
              "system": "http://loinc.org",
              "code": "67162-8"
            }
          ]
        },
        "subject": {
          "reference": "Patient/mii-exa-test-data-patient-2"
        },
        "effectiveDateTime": "2024-03-13T11:28:00+01:00",
        "valueCodeableConcept": {
          "coding": [
            {
              "code": "T",
              "system": "https://www.medizininformatik-initiative.de/fhir/core/modul-person/CodeSystem/Vitalstatus"
            }
          ]
        }
      }
    },
    {
      "request": {
        "method": "PUT",
        "url": "Condition/mii-exa-test-data-patient-2-todesursache-1"
      },
      "fullUrl": "https://www.medizininformatik-initiative.de/Condition/mii-exa-test-data-patient-2-todesursache-1",
      "resource": {
        "resourceType": "Condition",
        "id": "mii-exa-test-data-patient-2-todesursache-1",
        "meta": {
          "profile": [
            "https://www.medizininformatik-initiative.de/fhir/core/modul-person/StructureDefinition/Todesursache"
          ]
        },
        "code": {
          "coding": [
            {
              "system": "http://hl7.org/fhir/sid/icd-10",
              "code": "C34.8",
              "version": "2019"
            }
          ]
        },
        "note": [
          {
            "text": "Bösartige Neubildung: Bronchus und Lunge mehrere Teilbereiche überlappend"
          }
        ],
        "category": [
          {
            "coding": [
              {
                "system": "http://snomed.info/sct",
                "code": "16100001"
              },
              {
                "system": "http://loinc.org",
                "code": "79378-6"
              }
            ]
          }
        ],
        "clinicalStatus": {
          "coding": [
            {
              "code": "active",
              "system": "http://terminology.hl7.org/CodeSystem/condition-clinical"
            }
          ]
        },
        "verificationStatus": {
          "coding": [
            {
              "code": "confirmed",
              "system": "http://terminology.hl7.org/CodeSystem/condition-ver-status"
            }
          ]
        },
        "subject": {
          "reference": "Patient/mii-exa-test-data-patient-2"
        },
        "recordedDate": "2024-03-13"
      }
    }
  ],
  "type": "transaction",
  "timestamp": "2024-03-14T10:58:00+01:00"
}
