{
  "resourceType": "Bundle",
  "id": "mii-exa-test-data-patient-2-bundle",
  "entry": [
    {
      "request": {
        "method": "PUT",
        "url": "Patient/mii-exa-test-data-patient-2"
      },
      "fullUrl": "https://www.medizininformatik-initiative.de/Patient/mii-exa-test-data-patient-2",
      "resource": {
        "resourceType": "Patient",
        "id": "mii-exa-test-data-patient-2",
        "meta": {
          "profile": [
            "https://www.medizininformatik-initiative.de/fhir/core/modul-person/StructureDefinition/Patient",
            "http://fhir.de/ConsentManagement/StructureDefinition/Patient"
          ]
        },
        "identifier": [
          {
            "assigner": {
              "identifier": {
                "type": {
                  "coding": [
                    {
                      "code": "XX",
                      "system": "http://terminology.hl7.org/CodeSystem/v2-0203"
                    }
                  ]
                },
                "system": "http://fhir.de/sid/arge-ik/iknr",
                "value": "123456789"
              }
            },
            "use": "official",
            "type": {
              "coding": [
                {
                  "code": "GKV",
                  "system": "http://fhir.de/CodeSystem/identifier-type-de-basis"
                }
              ]
            },
            "system": "http://fhir.de/sid/gkv/kvid-10",
            "value": "B23456789"
          },
          {
            "assigner": {
              "identifier": {
                "type": {
                  "coding": [
                    {
                      "code": "XX",
                      "system": "http://terminology.hl7.org/CodeSystem/v2-0203"
                    }
                  ]
                },
                "system": "https://www.medizininformatik-initiative.de/fhir/core/CodeSystem/core-location-identifier",
                "value": "Charité"
              }
            },
            "type": {
              "coding": [
                {
                  "code": "MR",
                  "system": "http://terminology.hl7.org/CodeSystem/v2-0203"
                }
              ]
            },
            "system": "https://www.charite.de/fhir/sid/patientenidentifikation",
            "value": "147725268"
          }
        ],
        "gender": "other",
        "_gender": {
          "extension": [
            {
              "url": "http://fhir.de/StructureDefinition/gender-amtlich-de",
              "valueCoding": {
                "code": "D",
                "system": "http://fhir.de/CodeSystem/gender-amtlich-de"
              }
            }
          ]
        },
        "birthDate": "2000-06-30",
        "deceasedBoolean": true
      }
    },
    {
      "request": {
        "method": "PUT",
        "url": "Consent/mii-exa-test-data-patient-2-consent-1"
      },
      "fullUrl": "https://www.medizininformatik-initiative.de/Consent/mii-exa-test-data-patient-2-consent-1",
      "resource": {
        "resourceType": "Consent",
        "id": "mii-exa-test-data-patient-2-consent-1",
        "meta": {
          "profile": [
            "https://www.medizininformatik-initiative.de/fhir/modul-consent/StructureDefinition/mii-pr-consent-einwilligung"
          ]
        },
        "category": [
          {
            "coding": [
              {
                "system": "http://loinc.org",
                "code": "57016-8"
              }
            ]
          },
          {
            "coding": [
              {
                "code": "2.16.840.1.113883.3.1937.777.24.2.184",
                "system": "https://www.medizininformatik-initiative.de/fhir/modul-consent/CodeSystem/mii-cs-consent-consent_category"
              }
            ]
          }
        ],
        "organization": [
          {
            "reference": "Organization/mii-exa-test-data-organization-charite"
          }
        ],
        "policy": [
          {
            "uri": "urn:oid:2.16.840.1.113883.3.1937.777.24.2.1791"
          }
        ],
        "provision": {
          "period": {
            "start": "2024-03-14",
            "end": "2054-02-28"
          },
          "provision": [
            {
              "period": {
                "start": "2024-03-14",
                "end": "2054-02-28"
              },
              "code": [
                {
                  "coding": [
                    {
                      "code": "2.16.840.1.113883.3.1937.777.24.5.3.6",
                      "system": "urn:oid:2.16.840.1.113883.3.1937.777.24.5.3",
                      "display": "MDAT erheben"
                    }
                  ]
                }
              ],
              "type": "permit"
            },
            {
              "period": {
                "start": "2024-03-14",
                "end": "2054-02-28"
              },
              "code": [
                {
                  "coding": [
                    {
                      "code": "2.16.840.1.113883.3.1937.777.24.5.3.7",
                      "system": "urn:oid:2.16.840.1.113883.3.1937.777.24.5.3",
                      "display": "MDAT speichern, verarbeiten"
                    }
                  ]
                }
              ],
              "type": "permit"
            },
            {
              "period": {
                "start": "2024-03-14",
                "end": "2054-02-28"
              },
              "code": [
                {
                  "coding": [
                    {
                      "code": "2.16.840.1.113883.3.1937.777.24.5.3.8",
                      "system": "urn:oid:2.16.840.1.113883.3.1937.777.24.5.3",
                      "display": "MDAT wissenschaftlich nutzen EU DSGVO NIVEAU"
                    }
                  ]
                }
              ],
              "type": "permit"
            },
            {
              "period": {
                "start": "2024-03-14",
                "end": "2054-02-28"
              },
              "code": [
                {
                  "coding": [
                    {
                      "code": "2.16.840.1.113883.3.1937.777.24.5.3.19",
                      "system": "urn:oid:2.16.840.1.113883.3.1937.777.24.5.3",
                      "display": "BIOMAT erheben"
                    }
                  ]
                }
              ],
              "type": "permit"
            },
            {
              "period": {
                "start": "2024-03-14",
                "end": "2054-02-28"
              },
              "code": [
                {
                  "coding": [
                    {
                      "code": "2.16.840.1.113883.3.1937.777.24.5.3.20",
                      "system": "urn:oid:2.16.840.1.113883.3.1937.777.24.5.3",
                      "display": "BIOMAT lagern verarbeiten"
                    }
                  ]
                }
              ],
              "type": "permit"
            },
            {
              "period": {
                "start": "2024-03-14",
                "end": "2054-02-28"
              },
              "code": [
                {
                  "coding": [
                    {
                      "code": "2.16.840.1.113883.3.1937.777.24.5.3.22",
                      "system": "urn:oid:2.16.840.1.113883.3.1937.777.24.5.3",
                      "display": "BIOMAT wissenschaftlich nutzen EU DSGVO NIVEAU"
                    }
                  ]
                }
              ],
              "type": "permit"
            }
          ],
          "type": "deny"
        },
        "scope": {
          "coding": [
            {
              "system": "http://terminology.hl7.org/CodeSystem/consentscope",
              "code": "research"
            }
          ]
        },
        "status": "active",
        "patient": {
          "reference": "Patient/mii-exa-test-data-patient-2"
        },
        "dateTime": "2024-03-14T11:00:00+01:00"
      }
    },
    {
      "request": {
        "method": "PUT",
        "url": "Observation/mii-exa-test-data-patient-2-vitalstatus-1"
      },
      "fullUrl": "https://www.medizininformatik-initiative.de/Observation/mii-exa-test-data-patient-2-vitalstatus-1",
      "resource": {
        "resourceType": "Observation",
        "id": "mii-exa-test-data-patient-2-vitalstatus-1",
        "meta": {
          "profile": [
            "https://www.medizininformatik-initiative.de/fhir/core/modul-person/StructureDefinition/Vitalstatus"
          ]
        },
        "category": [
          {
            "coding": [
              {
                "system": "http://terminology.hl7.org/CodeSystem/observation-category",
                "code": "survey"
              }
            ]
          }
        ],
        "status": "final",
        "code": {
          "coding": [
            {
              "system": "http://loinc.org",
              "code": "67162-8"
            }
          ]
        },
        "subject": {
          "reference": "Patient/mii-exa-test-data-patient-2"
        },
        "effectiveDateTime": "2024-03-13T11:28:00+01:00",
        "valueCodeableConcept": {
          "coding": [
            {
              "code": "T",
              "system": "https://www.medizininformatik-initiative.de/fhir/core/modul-person/CodeSystem/Vitalstatus"
            }
          ]
        }
      }
    },
    {
      "request": {
        "method": "PUT",
        "url": "Condition/mii-exa-test-data-patient-2-todesursache-1"
      },
      "fullUrl": "https://www.medizininformatik-initiative.de/Condition/mii-exa-test-data-patient-2-todesursache-1",
      "resource": {
        "resourceType": "Condition",
        "id": "mii-exa-test-data-patient-2-todesursache-1",
        "meta": {
          "profile": [
            "https://www.medizininformatik-initiative.de/fhir/core/modul-person/StructureDefinition/Todesursache"
          ]
        },
        "code": {
          "coding": [
            {
              "system": "http://hl7.org/fhir/sid/icd-10",
              "code": "C34.8",
              "version": "2019"
            }
          ]
        },
        "note": [
          {
            "text": "Bösartige Neubildung: Bronchus und Lunge mehrere Teilbereiche überlappend"
          }
        ],
        "category": [
          {
            "coding": [
              {
                "system": "http://snomed.info/sct",
                "code": "16100001"
              },
              {
                "system": "http://loinc.org",
                "code": "79378-6"
              }
            ]
          }
        ],
        "clinicalStatus": {
          "coding": [
            {
              "code": "active",
              "system": "http://terminology.hl7.org/CodeSystem/condition-clinical"
            }
          ]
        },
        "verificationStatus": {
          "coding": [
            {
              "code": "confirmed",
              "system": "http://terminology.hl7.org/CodeSystem/condition-ver-status"
            }
          ]
        },
        "subject": {
          "reference": "Patient/mii-exa-test-data-patient-2"
        },
        "recordedDate": "2024-03-13"
      }
    },
    {
      "request": {
        "method": "PUT",
        "url": "Organization/mii-exa-test-data-organization-charite"
      },
      "fullUrl": "https://www.medizininformatik-initiative.de/Organization/mii-exa-test-data-organization-charite",
      "resource": {
        "resourceType": "Organization",
        "id": "mii-exa-test-data-organization-charite",
        "type": [
          {
            "coding": [
              {
                "code": "prov",
                "system": "http://terminology.hl7.org/CodeSystem/organization-type",
                "display": "Healthcare Provider"
              }
            ]
          }
        ],
        "name": "Charité – Universitätsmedizin Berlin"
      }
    }
  ],
  "type": "transaction",
  "timestamp": "2024-03-14T10:58:00+01:00"
}
