{
  "resourceType": "Bundle",
  "id": "mii-exa-test-data-bundle-pat-1",
  "entry": [
    {
      "request": {
        "method": "POST",
        "url": "Patient"
      },
      "fullUrl": "https://www.medizininformatik-initiative.de/Patient/mii-exa-test-data-patient-1",
      "resource": {
        "resourceType": "Patient",
        "id": "mii-exa-test-data-patient-1",
        "meta": {
          "profile": [
            "https://www.medizininformatik-initiative.de/fhir/core/modul-person/StructureDefinition/Patient",
            "http://fhir.de/ConsentManagement/StructureDefinition/Patient"
          ]
        },
        "identifier": [
          {
            "assigner": {
              "identifier": {
                "use": "official",
                "value": "987654321",
                "system": "http://fhir.de/sid/arge-ik/iknr"
              }
            },
            "use": "official",
            "type": {
              "coding": [
                {
                  "code": "KVZ10",
                  "system": "http://fhir.de/CodeSystem/identifier-type-de-basis"
                }
              ]
            },
            "system": "http://fhir.de/sid/gkv/kvid-10",
            "value": "A123456780"
          },
          {
            "assigner": {
              "identifier": {
                "type": {
                  "coding": [
                    {
                      "code": "XX",
                      "system": "http://terminology.hl7.org/CodeSystem/v2-0203"
                    }
                  ]
                },
                "system": "https://www.medizininformatik-initiative.de/fhir/core/CodeSystem/core-location-identifier",
                "value": "Charité"
              }
            },
            "type": {
              "coding": [
                {
                  "code": "MR",
                  "system": "http://terminology.hl7.org/CodeSystem/v2-0203"
                }
              ]
            },
            "system": "https://www.charite.de/fhir/sid/patientenidentifikation",
            "value": "808439625"
          }
        ],
        "name": [
          {
            "given": [
              "Christian",
              "Ludwig"
            ],
            "prefix": [
              "Prinz von Preußen"
            ],
            "_prefix": [
              {
                "extension": [
                  {
                    "url": "http://hl7.org/fhir/StructureDefinition/iso21090-EN-qualifier",
                    "valueCode": "NB"
                  }
                ]
              }
            ],
            "suffix": [
              "aus dem Haus der Hohenzollern"
            ],
            "use": "official",
            "family": "Markgraf von Brandenburg-Schwedt",
            "_family": {
              "extension": [
                {
                  "url": "http://fhir.de/StructureDefinition/humanname-namenszusatz",
                  "valueString": "Markgraf"
                },
                {
                  "url": "http://hl7.org/fhir/StructureDefinition/humanname-own-name",
                  "valueString": "Brandenburg-Schwedt"
                },
                {
                  "url": "http://hl7.org/fhir/StructureDefinition/humanname-own-prefix",
                  "valueString": "von"
                }
              ]
            }
          }
        ],
        "address": [
          {
            "extension": [
              {
                "url": "http://hl7.org/fhir/StructureDefinition/iso21090-ADXP-precinct",
                "valueString": "Malchow"
              }
            ],
            "line": [
              "Dorfstraße 9",
              "Schloss",
              "Malchow"
            ],
            "_line": [
              {
                "extension": [
                  {
                    "url": "http://hl7.org/fhir/StructureDefinition/iso21090-ADXP-streetName",
                    "valueString": "Dorfstraße"
                  },
                  {
                    "url": "http://hl7.org/fhir/StructureDefinition/iso21090-ADXP-houseNumber",
                    "valueString": "9"
                  }
                ]
              },
              {
                "extension": [
                  {
                    "url": "http://hl7.org/fhir/StructureDefinition/iso21090-ADXP-additionalLocator",
                    "valueString": "Schloss"
                  }
                ]
              },
              null
            ],
            "type": "both",
            "city": "Berlin",
            "_city": {
              "extension": [
                {
                  "url": "http://fhir.de/StructureDefinition/destatis/ags",
                  "valueCoding": {
                    "code": "11000000",
                    "system": "http://fhir.de/sid/destatis/ags"
                  }
                }
              ]
            },
            "postalCode": "13051",
            "country": "DE"
          }
        ],
        "gender": "male",
        "birthDate": "1977-05-24",
        "deceasedDateTime": "2024-02-22"
      }
    },
    {
      "request": {
        "method": "POST",
        "url": "Consent"
      },
      "fullUrl": "https://www.medizininformatik-initiative.de/Consent/mii-exa-test-data-patient-1-consent-1",
      "resource": {
        "resourceType": "Consent",
        "id": "mii-exa-test-data-patient-1-consent-1",
        "meta": {
          "profile": [
            "https://www.medizininformatik-initiative.de/fhir/modul-consent/StructureDefinition/mii-pr-consent-einwilligung"
          ]
        },
        "category": [
          {
            "coding": [
              {
                "system": "http://loinc.org",
                "code": "57016-8"
              }
            ]
          },
          {
            "coding": [
              {
                "code": "2.16.840.1.113883.3.1937.777.24.2.184",
                "system": "https://www.medizininformatik-initiative.de/fhir/modul-consent/CodeSystem/mii-cs-consent-consent_category"
              }
            ]
          }
        ],
        "organization": [
          {
            "reference": "Organization/mii-exa-test-data-organization-charite"
          }
        ],
        "policy": [
          {
            "uri": "urn:oid:2.16.840.1.113883.3.1937.777.24.2.1791"
          }
        ],
        "provision": {
          "period": {
            "start": "2024-02-23",
            "end": "2054-01-31"
          },
          "provision": [
            {
              "period": {
                "start": "2024-02-23",
                "end": "2054-01-31"
              },
              "code": [
                {
                  "coding": [
                    {
                      "code": "2.16.840.1.113883.3.1937.777.24.5.3.6",
                      "system": "urn:oid:2.16.840.1.113883.3.1937.777.24.5.3",
                      "display": "MDAT erheben"
                    }
                  ]
                }
              ],
              "type": "permit"
            },
            {
              "period": {
                "start": "2024-02-23",
                "end": "2054-01-31"
              },
              "code": [
                {
                  "coding": [
                    {
                      "code": "2.16.840.1.113883.3.1937.777.24.5.3.7",
                      "system": "urn:oid:2.16.840.1.113883.3.1937.777.24.5.3",
                      "display": "MDAT speichern, verarbeiten"
                    }
                  ]
                }
              ],
              "type": "permit"
            },
            {
              "period": {
                "start": "2024-02-23",
                "end": "2054-01-31"
              },
              "code": [
                {
                  "coding": [
                    {
                      "code": "2.16.840.1.113883.3.1937.777.24.5.3.8",
                      "system": "urn:oid:2.16.840.1.113883.3.1937.777.24.5.3",
                      "display": "MDAT wissenschaftlich nutzen EU DSGVO NIVEAU"
                    }
                  ]
                }
              ],
              "type": "permit"
            },
            {
              "period": {
                "start": "2024-02-23",
                "end": "2054-01-31"
              },
              "code": [
                {
                  "coding": [
                    {
                      "code": "2.16.840.1.113883.3.1937.777.24.5.3.19",
                      "system": "urn:oid:2.16.840.1.113883.3.1937.777.24.5.3",
                      "display": "BIOMAT erheben"
                    }
                  ]
                }
              ],
              "type": "permit"
            },
            {
              "period": {
                "start": "2024-02-23",
                "end": "2054-01-31"
              },
              "code": [
                {
                  "coding": [
                    {
                      "code": "2.16.840.1.113883.3.1937.777.24.5.3.9",
                      "system": "urn:oid:2.16.840.1.113883.3.1937.777.24.5.3",
                      "display": "MDAT zusammenfuehren Dritte"
                    }
                  ]
                }
              ],
              "type": "permit"
            },
            {
              "period": {
                "start": "2024-02-23",
                "end": "2054-01-31"
              },
              "code": [
                {
                  "coding": [
                    {
                      "code": "2.16.840.1.113883.3.1937.777.24.5.3.20",
                      "system": "urn:oid:2.16.840.1.113883.3.1937.777.24.5.3",
                      "display": "BIOMAT lagern verarbeiten"
                    }
                  ]
                }
              ],
              "type": "permit"
            },
            {
              "period": {
                "start": "2024-02-23",
                "end": "2054-01-31"
              },
              "code": [
                {
                  "coding": [
                    {
                      "code": "2.16.840.1.113883.3.1937.777.24.5.3.22",
                      "system": "urn:oid:2.16.840.1.113883.3.1937.777.24.5.3",
                      "display": "BIOMAT wissenschaftlich nutzen EU DSGVO NIVEAU"
                    }
                  ]
                }
              ],
              "type": "permit"
            }
          ],
          "type": "deny"
        },
        "scope": {
          "coding": [
            {
              "system": "http://terminology.hl7.org/CodeSystem/consentscope",
              "code": "research"
            }
          ]
        },
        "status": "active",
        "patient": {
          "reference": "Patient/mii-exa-test-data-patient-1"
        },
        "dateTime": "2024-02-23T12:00:00+01:00"
      }
    },
    {
      "request": {
        "method": "POST",
        "url": "Observation"
      },
      "fullUrl": "https://www.medizininformatik-initiative.de/Observation/mii-exa-test-data-patient-1-vitalstatus-1",
      "resource": {
        "resourceType": "Observation",
        "id": "mii-exa-test-data-patient-1-vitalstatus-1",
        "meta": {
          "profile": [
            "https://www.medizininformatik-initiative.de/fhir/core/modul-person/StructureDefinition/Vitalstatus"
          ]
        },
        "category": [
          {
            "coding": [
              {
                "system": "http://terminology.hl7.org/CodeSystem/observation-category",
                "code": "survey"
              }
            ]
          }
        ],
        "status": "final",
        "code": {
          "coding": [
            {
              "system": "http://loinc.org",
              "code": "67162-8"
            }
          ]
        },
        "subject": {
          "reference": "Patient/mii-exa-test-data-patient-1"
        },
        "effectiveDateTime": "2024-02-21T16:46:17+01:00",
        "valueCodeableConcept": {
          "coding": [
            {
              "code": "T",
              "system": "https://www.medizininformatik-initiative.de/fhir/core/modul-person/CodeSystem/Vitalstatus"
            }
          ]
        }
      }
    },
    {
      "request": {
        "method": "POST",
        "url": "Condition"
      },
      "fullUrl": "https://www.medizininformatik-initiative.de/Condition/mii-exa-test-data-patient-1-todesursache-1",
      "resource": {
        "resourceType": "Condition",
        "id": "mii-exa-test-data-patient-1-todesursache-1",
        "meta": {
          "profile": [
            "https://www.medizininformatik-initiative.de/fhir/core/modul-person/StructureDefinition/Todesursache"
          ]
        },
        "code": {
          "coding": [
            {
              "system": "http://hl7.org/fhir/sid/icd-10",
              "code": "A15.0",
              "version": "2019"
            }
          ]
        },
        "note": [
          {
            "text": "Tuberkulose einschließlich ihrer Folgezustände"
          }
        ],
        "category": [
          {
            "coding": [
              {
                "system": "http://snomed.info/sct",
                "code": "16100001"
              },
              {
                "system": "http://loinc.org",
                "code": "79378-6"
              }
            ]
          }
        ],
        "clinicalStatus": {
          "coding": [
            {
              "code": "active",
              "system": "http://terminology.hl7.org/CodeSystem/condition-clinical"
            }
          ]
        },
        "verificationStatus": {
          "coding": [
            {
              "code": "confirmed",
              "system": "http://terminology.hl7.org/CodeSystem/condition-ver-status"
            }
          ]
        },
        "subject": {
          "reference": "Patient/mii-exa-test-data-patient-1"
        },
        "recordedDate": "2024-02-22"
      }
    },
    {
      "request": {
        "method": "POST",
        "url": "ResearchSubject"
      },
      "fullUrl": "https://www.medizininformatik-initiative.de/ResearchSubject/mii-exa-person-researchsubject-studienteilnehmer",
      "resource": {
        "resourceType": "ResearchSubject",
        "id": "mii-exa-person-researchsubject-studienteilnehmer",
        "identifier": [
          {
            "type": {
              "coding": [
                {
                  "code": "ANON",
                  "system": "http://terminology.hl7.org/CodeSystem/v2-0203"
                }
              ]
            },
            "system": "https://www.medizininformatik-initiative.de/fhir/core/sid/SubjectIdentificationCode",
            "value": "123456789"
          }
        ],
        "period": {
          "start": "2024-03-06"
        },
        "status": "candidate",
        "study": {
          "reference": "ResearchStudy/mii-exa-test-data-researchstudy-1"
        },
        "individual": {
          "reference": "Patient/mii-exa-test-data-patient-1"
        },
        "consent": {
          "reference": "Consent/mii-exa-test-data-patient-1-consent-1"
        }
      }
    },
    {
      "request": {
        "method": "POST",
        "url": "Condition"
      },
      "fullUrl": "https://www.medizininformatik-initiative.de/Condition/mii-exa-test-data-patient-1-diagnose-1",
      "resource": {
        "resourceType": "Condition",
        "id": "mii-exa-test-data-patient-1-diagnose-1",
        "meta": {
          "profile": [
            "https://www.medizininformatik-initiative.de/fhir/core/modul-diagnose/StructureDefinition/Diagnose"
          ]
        },
        "code": {
          "coding": [
            {
              "extension": [
                {
                  "url": "http://fhir.de/StructureDefinition/icd-10-gm-mehrfachcodierungs-kennzeichen",
                  "valueCoding": {
                    "code": "†",
                    "system": "http://fhir.de/CodeSystem/icd-10-gm-mehrfachcodierungs-kennzeichen"
                  }
                },
                {
                  "url": "http://fhir.de/StructureDefinition/seitenlokalisation",
                  "valueCoding": {
                    "code": "B",
                    "system": "https://fhir.kbv.de/CodeSystem/KBV_CS_SFHIR_ICD_SEITENLOKALISATION",
                    "display": "beiderseits"
                  }
                },
                {
                  "url": "http://fhir.de/StructureDefinition/icd-10-gm-diagnosesicherheit",
                  "valueCoding": {
                    "code": "G",
                    "system": "https://fhir.kbv.de/CodeSystem/KBV_CS_SFHIR_ICD_DIAGNOSESICHERHEIT",
                    "display": "gesicherte Diagnose"
                  }
                }
              ],
              "system": "http://fhir.de/CodeSystem/bfarm/icd-10-gm",
              "code": "B05.3",
              "version": "2023"
            },
            {
              "system": "http://fhir.de/CodeSystem/bfarm/alpha-id",
              "code": "I29578",
              "version": "2023",
              "display": "Masern mit Otitis"
            },
            {
              "system": "http://snomed.info/sct",
              "code": "13420004",
              "version": "http://snomed.info/sct/900000000000207008/version/20230731",
              "display": "Post measles otitis media (disorder)"
            }
          ]
        },
        "note": [
          {
            "text": "Masernotitis"
          }
        ],
        "bodySite": [
          {
            "coding": [
              {
                "system": "http://snomed.info/sct",
                "code": "25342003",
                "version": "http://snomed.info/sct/900000000000207008/version/20230731",
                "display": "Middle ear structure (body structure)"
              }
            ]
          }
        ],
        "clinicalStatus": {
          "coding": [
            {
              "code": "active",
              "system": "http://terminology.hl7.org/CodeSystem/condition-clinical"
            }
          ]
        },
        "verificationStatus": {
          "coding": [
            {
              "code": "confirmed",
              "system": "http://terminology.hl7.org/CodeSystem/condition-ver-status"
            }
          ]
        },
        "subject": {
          "reference": "Patient/mii-exa-test-data-patient-1"
        },
        "recordedDate": "2024-02-21",
        "onsetDateTime": "2024-02-21"
      }
    },
    {
      "request": {
        "method": "POST",
        "url": "Condition"
      },
      "fullUrl": "https://www.medizininformatik-initiative.de/Condition/mii-exa-test-data-patient-1-diagnose-2",
      "resource": {
        "resourceType": "Condition",
        "id": "mii-exa-test-data-patient-1-diagnose-2",
        "meta": {
          "profile": [
            "https://www.medizininformatik-initiative.de/fhir/core/modul-diagnose/StructureDefinition/Diagnose"
          ]
        },
        "code": {
          "coding": [
            {
              "system": "http://fhir.de/CodeSystem/bfarm/icd-10-gm",
              "code": "H67.1",
              "version": "2023",
              "display": "Otitis media bei anderenorts klassifizierten Viruskrankheiten"
            }
          ]
        },
        "note": [
          {
            "text": "Masernotitis"
          }
        ],
        "extension": [
          {
            "url": "http://hl7.org/fhir/StructureDefinition/condition-related",
            "valueReference": {
              "reference": "Condition/mii-exa-test-data-patient-1-diagnose-1"
            }
          }
        ],
        "clinicalStatus": {
          "coding": [
            {
              "code": "active",
              "system": "http://terminology.hl7.org/CodeSystem/condition-clinical"
            }
          ]
        },
        "verificationStatus": {
          "coding": [
            {
              "code": "confirmed",
              "system": "http://terminology.hl7.org/CodeSystem/condition-ver-status"
            }
          ]
        },
        "subject": {
          "reference": "Patient/mii-exa-test-data-patient-1"
        },
        "recordedDate": "2024-02-21",
        "onsetDateTime": "2024-02-21"
      }
    },
    {
      "request": {
        "method": "POST",
        "url": "Encounter"
      },
      "fullUrl": "https://www.medizininformatik-initiative.de/Encounter/mii-exa-test-data-patient-1-encounter-1",
      "resource": {
        "resourceType": "Encounter",
        "id": "mii-exa-test-data-patient-1-encounter-1",
        "meta": {
          "profile": [
            "https://www.medizininformatik-initiative.de/fhir/core/modul-fall/StructureDefinition/KontaktGesundheitseinrichtung"
          ]
        },
        "identifier": [
          {
            "type": {
              "coding": [
                {
                  "system": "http://terminology.hl7.org/CodeSystem/v2-0203",
                  "code": "VN"
                }
              ]
            },
            "system": "https://www.charite.de/fhir/NamingSystem/Aufnahmenummern",
            "value": "MII_0000001"
          }
        ],
        "type": [
          {
            "coding": [
              {
                "system": "http://fhir.de/CodeSystem/Kontaktebene",
                "code": "einrichtungskontakt"
              }
            ]
          },
          {
            "coding": [
              {
                "system": "http://fhir.de/CodeSystem/kontaktart-de",
                "code": "normalstationaer"
              }
            ]
          }
        ],
        "serviceType": {
          "coding": [
            {
              "system": "http://fhir.de/CodeSystem/dkgev/Fachabteilungsschluessel",
              "code": "0100"
            }
          ]
        },
        "period": {
          "start": "2024-02-14",
          "end": "2024-02-22"
        },
        "diagnosis": [
          {
            "condition": {
              "reference": "Condition/mii-exa-test-data-patient-1-diagnose-1"
            },
            "use": {
              "coding": [
                {
                  "code": "AD",
                  "system": "http://terminology.hl7.org/CodeSystem/diagnosis-role",
                  "display": "Admission diagnosis"
                }
              ]
            },
            "rank": 1
          },
          {
            "condition": {
              "reference": "Condition/mii-exa-test-data-patient-1-todesursache-1"
            },
            "use": {
              "coding": [
                {
                  "code": "DD",
                  "system": "http://terminology.hl7.org/CodeSystem/diagnosis-role",
                  "display": "Discharge diagnosis"
                }
              ]
            },
            "rank": 2
          }
        ],
        "hospitalization": {
          "dischargeDisposition": {
            "extension": [
              {
                "extension": [
                  {
                    "url": "ErsteUndZweiteStelle",
                    "valueCoding": {
                      "code": "07",
                      "system": "http://fhir.de/CodeSystem/dkgev/EntlassungsgrundErsteUndZweiteStelle",
                      "display": "Tod"
                    }
                  },
                  {
                    "url": "DritteStelle",
                    "valueCoding": {
                      "code": "9",
                      "system": "http://fhir.de/CodeSystem/dkgev/EntlassungsgrundDritteStelle",
                      "display": "keine Angabe"
                    }
                  }
                ],
                "url": "http://fhir.de/StructureDefinition/Entlassungsgrund"
              }
            ]
          },
          "admitSource": {
            "coding": [
              {
                "code": "E",
                "system": "http://fhir.de/CodeSystem/dgkev/Aufnahmeanlass",
                "display": "Einweisung durch einen Arzt"
              }
            ]
          }
        },
        "location": [
          {
            "location": {
              "identifier": {
                "system": "https://www.charite.de/fhir/sid/Zimmernummern",
                "value": "RHC-06-210b"
              },
              "display": "RHC-06-210b"
            },
            "physicalType": {
              "coding": [
                {
                  "system": "http://terminology.hl7.org/CodeSystem/location-physical-type",
                  "code": "ro"
                }
              ]
            }
          },
          {
            "location": {
              "identifier": {
                "system": "https://www.charite.de/fhir/sid/Bettennummern",
                "value": "RHC-06-210b-02"
              },
              "display": "RHC-06-210b-02"
            },
            "physicalType": {
              "coding": [
                {
                  "system": "http://terminology.hl7.org/CodeSystem/location-physical-type",
                  "code": "bd"
                }
              ]
            }
          },
          {
            "location": {
              "identifier": {
                "system": "https://www.charite.de/fhir/sid/Stationsnummern",
                "value": "RHC-06"
              },
              "display": "RHC-06"
            },
            "physicalType": {
              "coding": [
                {
                  "system": "http://terminology.hl7.org/CodeSystem/location-physical-type",
                  "code": "wa"
                }
              ]
            }
          }
        ],
        "serviceProvider": {
          "identifier": {
            "system": "https://www.medizininformatik-initiative.de/fhir/core/CodeSystem/core-location-identifier",
            "value": "Charité"
          },
          "reference": "Organization/mii-exa-test-data-organization-charite",
          "display": "Charité - Universitätsmedizin Berlin"
        },
        "status": "finished",
        "class": {
          "code": "IMP",
          "system": "http://terminology.hl7.org/CodeSystem/v3-ActCode"
        },
        "subject": {
          "reference": "Patient/mii-exa-test-data-patient-1"
        }
      }
    },
    {
      "request": {
        "method": "POST",
        "url": "Encounter"
      },
      "fullUrl": "https://www.medizininformatik-initiative.de/Encounter/mii-exa-test-data-patient-1-encounter-2",
      "resource": {
        "resourceType": "Encounter",
        "id": "mii-exa-test-data-patient-1-encounter-2",
        "meta": {
          "profile": [
            "https://www.medizininformatik-initiative.de/fhir/core/modul-fall/StructureDefinition/KontaktGesundheitseinrichtung"
          ]
        },
        "identifier": [
          {
            "type": {
              "coding": [
                {
                  "system": "http://terminology.hl7.org/CodeSystem/v2-0203",
                  "code": "VN"
                }
              ]
            },
            "system": "https://www.charite.de/fhir/NamingSystem/Aufnahmenummern",
            "value": "MII_0000002"
          }
        ],
        "type": [
          {
            "coding": [
              {
                "system": "http://fhir.de/CodeSystem/Kontaktebene",
                "code": "versorgungsstellenkontakt"
              }
            ]
          },
          {
            "coding": [
              {
                "system": "http://fhir.de/CodeSystem/kontaktart-de",
                "code": "operation"
              }
            ]
          }
        ],
        "serviceType": {
          "coding": [
            {
              "system": "http://fhir.de/CodeSystem/dkgev/Fachabteilungsschluessel",
              "code": "2000"
            }
          ]
        },
        "period": {
          "start": "2024-02-20T10:00:00+01:00",
          "end": "2024-02-20T13:00:00+01:00"
        },
        "status": "finished",
        "class": {
          "code": "IMP",
          "system": "http://terminology.hl7.org/CodeSystem/v3-ActCode"
        },
        "subject": {
          "reference": "Patient/mii-exa-test-data-patient-1"
        },
        "partOf": {
          "reference": "Encounter/mii-exa-test-data-patient-1-encounter-1"
        }
      }
    },
    {
      "request": {
        "method": "POST",
        "url": "Organization"
      },
      "fullUrl": "https://www.medizininformatik-initiative.de/Organization/mii-exa-test-data-organization-charite",
      "resource": {
        "resourceType": "Organization",
        "id": "mii-exa-test-data-organization-charite",
        "type": [
          {
            "coding": [
              {
                "code": "prov",
                "system": "http://terminology.hl7.org/CodeSystem/organization-type",
                "display": "Healthcare Provider"
              }
            ]
          }
        ],
        "name": "Charité – Universitätsmedizin Berlin"
      }
    },
    {
      "request": {
        "method": "POST",
        "url": "Procedure"
      },
      "fullUrl": "https://www.medizininformatik-initiative.de/Procedure/mii-exa-test-data-patient-1-prozedur-1",
      "resource": {
        "resourceType": "Procedure",
        "id": "mii-exa-test-data-patient-1-prozedur-1",
        "meta": {
          "profile": [
            "https://www.medizininformatik-initiative.de/fhir/core/modul-prozedur/StructureDefinition/Procedure"
          ]
        },
        "category": {
          "coding": [
            {
              "system": "http://snomed.info/sct",
              "code": "387713003",
              "version": "http://snomed.info/sct/900000000000207008/version/20230731"
            }
          ]
        },
        "code": {
          "coding": [
            {
              "system": "http://snomed.info/sct",
              "code": "726427004",
              "version": "http://snomed.info/sct/900000000000207008/version/20230731"
            },
            {
              "system": "http://fhir.de/CodeSystem/bfarm/ops",
              "code": "5-323.51",
              "version": "2023"
            }
          ]
        },
        "bodySite": [
          {
            "coding": [
              {
                "code": "44714003",
                "system": "http://snomed.info/sct",
                "version": "http://snomed.info/sct/900000000000207008/version/20230731"
              }
            ]
          }
        ],
        "note": [
          {
            "text": "Exzision und Resektion an Lunge"
          }
        ],
        "performedPeriod": {
          "start": "2024-02-20T10:14:00+01:00",
          "end": "2024-02-20T12:47:00+01:00"
        },
        "extension": [
          {
            "url": "http://fhir.de/StructureDefinition/ProzedurDokumentationsdatum",
            "valueDateTime": "2024-02-20T16:15:00+01:00"
          },
          {
            "url": "https://www.medizininformatik-initiative.de/fhir/core/modul-prozedur/StructureDefinition/Durchfuehrungsabsicht",
            "valueCoding": {
              "system": "http://snomed.info/sct",
              "code": "262202000",
              "version": "http://snomed.info/sct/900000000000207008/version/20230731"
            }
          }
        ],
        "status": "completed",
        "subject": {
          "reference": "Patient/mii-exa-test-data-patient-1"
        },
        "encounter": {
          "reference": "Encounter/mii-exa-test-data-patient-1-encounter-1"
        },
        "recorder": {
          "reference": "PractitionerRole/mii-exa-test-data-practitioner-role-physician-1"
        }
      }
    },
    {
      "request": {
        "method": "POST",
        "url": "Procedure"
      },
      "fullUrl": "https://www.medizininformatik-initiative.de/Procedure/mii-exa-test-data-patient-1-prozedur-2",
      "resource": {
        "resourceType": "Procedure",
        "id": "mii-exa-test-data-patient-1-prozedur-2",
        "meta": {
          "profile": [
            "https://www.medizininformatik-initiative.de/fhir/core/modul-prozedur/StructureDefinition/Procedure"
          ]
        },
        "category": {
          "coding": [
            {
              "system": "http://snomed.info/sct",
              "code": "18629005",
              "version": "http://snomed.info/sct/900000000000207008/version/20230731"
            }
          ]
        },
        "code": {
          "coding": [
            {
              "system": "http://snomed.info/sct",
              "code": "281790008",
              "version": "http://snomed.info/sct/900000000000207008/version/20230731"
            },
            {
              "system": "http://fhir.de/CodeSystem/bfarm/ops",
              "code": "6-00g.33",
              "version": "2023"
            }
          ]
        },
        "bodySite": [
          {
            "coding": [
              {
                "code": "789218009",
                "system": "http://snomed.info/sct",
                "version": "http://snomed.info/sct/900000000000207008/version/20230731"
              }
            ]
          }
        ],
        "note": [
          {
            "text": "Dalbavancin parenteral"
          }
        ],
        "performedPeriod": {
          "start": "2024-02-16T10:20:00.000+01:00",
          "end": "2024-02-16T10:50:00.000+01:00"
        },
        "extension": [
          {
            "url": "https://www.medizininformatik-initiative.de/fhir/core/modul-prozedur/StructureDefinition/Durchfuehrungsabsicht",
            "valueCoding": {
              "system": "http://snomed.info/sct",
              "code": "262202000",
              "version": "http://snomed.info/sct/900000000000207008/version/20230731"
            }
          }
        ],
        "status": "completed",
        "subject": {
          "reference": "Patient/mii-exa-test-data-patient-1"
        },
        "encounter": {
          "reference": "Encounter/mii-exa-test-data-patient-1-encounter-1"
        }
      }
    },
    {
      "request": {
        "method": "POST",
        "url": "List"
      },
      "fullUrl": "https://www.medizininformatik-initiative.de/List/mii-exa-test-data-patient-1-list-aufnahmemedikation",
      "resource": {
        "resourceType": "List",
        "id": "mii-exa-test-data-patient-1-list-aufnahmemedikation",
        "meta": {
          "profile": [
            "https://www.medizininformatik-initiative.de/fhir/core/modul-medikation/StructureDefinition/medikationsliste"
          ]
        },
        "code": {
          "coding": [
            {
              "system": "http://terminology.hl7.org/CodeSystem/list-example-use-codes",
              "code": "medications"
            },
            {
              "system": "http://ihe-d.de/CodeSystems/FallkontextBeiDokumentenerstellung",
              "code": "E210"
            }
          ]
        },
        "entry": [
          {
            "item": {
              "reference": "MedicationStatement/mii-exa-test-data-patient-1-medstatement-1"
            }
          }
        ],
        "status": "current",
        "mode": "snapshot",
        "title": "Aufnahmemedikation",
        "subject": {
          "reference": "Patient/mii-exa-test-data-patient-1"
        }
      }
    },
    {
      "request": {
        "method": "POST",
        "url": "List"
      },
      "fullUrl": "https://www.medizininformatik-initiative.de/List/mii-exa-test-data-patient-1-list-stat-aufenthalt",
      "resource": {
        "resourceType": "List",
        "id": "mii-exa-test-data-patient-1-list-stat-aufenthalt",
        "meta": {
          "profile": [
            "https://www.medizininformatik-initiative.de/fhir/core/modul-medikation/StructureDefinition/medikationsliste"
          ]
        },
        "code": {
          "coding": [
            {
              "system": "http://terminology.hl7.org/CodeSystem/list-example-use-codes",
              "code": "medications"
            },
            {
              "system": "http://ihe-d.de/CodeSystems/FallkontextBeiDokumentenerstellung",
              "code": "E200"
            }
          ]
        },
        "entry": [
          {
            "item": {
              "reference": "MedicationStatement/mii-exa-test-data-patient-1-medstatement-1"
            }
          },
          {
            "item": {
              "reference": "MedicationStatement/mii-exa-test-data-patient-1-medstatement-2"
            }
          }
        ],
        "status": "current",
        "mode": "working",
        "title": "Medikationsliste während stationärem Aufenthalt",
        "subject": {
          "reference": "Patient/mii-exa-test-data-patient-1"
        }
      }
    },
    {
      "request": {
        "method": "POST",
        "url": "Medication"
      },
      "fullUrl": "https://www.medizininformatik-initiative.de/Medication/mii-exa-test-data-medication-ass-100",
      "resource": {
        "resourceType": "Medication",
        "id": "mii-exa-test-data-medication-ass-100",
        "meta": {
          "profile": [
            "https://www.medizininformatik-initiative.de/fhir/core/modul-medikation/StructureDefinition/Medication"
          ]
        },
        "code": {
          "coding": [
            {
              "system": "http://fhir.de/CodeSystem/ifa/pzn",
              "code": "06312077",
              "display": "ASS 100 - 1a Pharma TAH Tabletten"
            },
            {
              "system": "http://fhir.de/CodeSystem/bfarm/atc",
              "code": "B01AC06",
              "version": "2023",
              "display": "Acetylsalicylsäure"
            }
          ]
        },
        "form": {
          "coding": [
            {
              "system": "http://standardterms.edqm.eu",
              "code": "10219000",
              "display": "Tablet"
            }
          ]
        },
        "ingredient": [
          {
            "itemCodeableConcept": {
              "coding": [
                {
                  "system": "http://fhir.de/CodeSystem/ask",
                  "code": "00002",
                  "display": "Acetylsalicylsäure"
                }
              ]
            },
            "strength": {
              "numerator": {
                "value": 100,
                "code": "mg",
                "system": "http://unitsofmeasure.org",
                "unit": "milligram"
              },
              "denominator": {
                "value": 1,
                "code": "10219000",
                "system": "http://standardterms.edqm.eu",
                "unit": "Tablet"
              }
            }
          }
        ]
      }
    },
    {
      "request": {
        "method": "POST",
        "url": "Medication"
      },
      "fullUrl": "https://www.medizininformatik-initiative.de/Medication/mii-exa-test-data-medication-propofol",
      "resource": {
        "resourceType": "Medication",
        "id": "mii-exa-test-data-medication-propofol",
        "meta": {
          "profile": [
            "https://www.medizininformatik-initiative.de/fhir/core/modul-medikation/StructureDefinition/Medication"
          ]
        },
        "code": {
          "coding": [
            {
              "system": "http://fhir.de/CodeSystem/bfarm/atc",
              "code": "N01AX10",
              "version": "2023",
              "display": "Propofol"
            }
          ]
        },
        "form": {
          "coding": [
            {
              "system": "http://standardterms.edqm.eu",
              "code": "50021000",
              "display": "Emulsion for injection/infusion"
            }
          ]
        },
        "ingredient": [
          {
            "itemCodeableConcept": {
              "coding": [
                {
                  "system": "http://fhir.de/CodeSystem/ask",
                  "code": "22898",
                  "display": "Propofol"
                },
                {
                  "system": "http://fdasis.nlm.nih.gov",
                  "code": "YI7VU623SF"
                },
                {
                  "system": "http://terminology.hl7.org/CodeSystem/CAS",
                  "code": "2078-54-8"
                },
                {
                  "system": "http://snomed.info/sct",
                  "code": "387423006",
                  "version": "http://snomed.info/sct/900000000000207008/version/20230731",
                  "display": "Propofol (substance)"
                }
              ]
            }
          }
        ]
      }
    },
    {
      "request": {
        "method": "POST",
        "url": "Medication"
      },
      "fullUrl": "https://www.medizininformatik-initiative.de/Medication/mii-exa-test-data-medication-dalbavancin",
      "resource": {
        "resourceType": "Medication",
        "id": "mii-exa-test-data-medication-dalbavancin",
        "meta": {
          "profile": [
            "https://www.medizininformatik-initiative.de/fhir/core/modul-medikation/StructureDefinition/Medication"
          ]
        },
        "code": {
          "coding": [
            {
              "system": "http://fhir.de/CodeSystem/ifa/pzn",
              "code": "15205222",
              "display": "XYDALBA"
            },
            {
              "system": "http://fhir.de/CodeSystem/bfarm/atc",
              "code": "J01XA04",
              "version": "2023",
              "display": "Dalbavancin"
            }
          ]
        },
        "form": {
          "coding": [
            {
              "system": "http://standardterms.edqm.eu",
              "code": "50043000",
              "display": "Powder for concentrate for solution for infusion"
            }
          ]
        },
        "ingredient": [
          {
            "itemCodeableConcept": {
              "coding": [
                {
                  "system": "http://fhir.de/CodeSystem/ask",
                  "code": "33395",
                  "display": "Dalbavancin"
                },
                {
                  "system": "http://fdasis.nlm.nih.gov",
                  "code": "808UI9MS5K"
                },
                {
                  "system": "http://terminology.hl7.org/CodeSystem/CAS",
                  "code": "171500-79-1"
                },
                {
                  "system": "http://snomed.info/sct",
                  "code": "703917001",
                  "version": "http://snomed.info/sct/900000000000207008/version/20230731",
                  "display": "Dalbavancin (substance)"
                }
              ]
            }
          }
        ]
      }
    },
    {
      "request": {
        "method": "POST",
        "url": "MedicationAdministration"
      },
      "fullUrl": "https://www.medizininformatik-initiative.de/MedicationAdministration/mii-exa-test-data-patient-1-medadmin-1",
      "resource": {
        "resourceType": "MedicationAdministration",
        "id": "mii-exa-test-data-patient-1-medadmin-1",
        "meta": {
          "profile": [
            "https://www.medizininformatik-initiative.de/fhir/core/modul-medikation/StructureDefinition/MedicationAdministration"
          ]
        },
        "identifier": [
          {
            "system": "https://www.charite.de/fhir/sid/MedicationAdministrations",
            "value": "MA_0000001"
          }
        ],
        "partOf": [
          {
            "reference": "Procedure/mii-exa-test-data-patient-1-prozedur-2"
          }
        ],
        "effectivePeriod": {
          "start": "2024-02-16T10:20:00.000+01:00",
          "end": "2024-02-16T10:50:00.000+01:00"
        },
        "note": [
          {
            "text": "wie angeordnet verabreicht"
          }
        ],
        "dosage": {
          "site": {
            "coding": [
              {
                "system": "http://snomed.info/sct",
                "code": "789218009",
                "version": "http://snomed.info/sct/900000000000207008/version/20230731",
                "display": "Structure of dorsum of left hand (body structure)"
              }
            ]
          },
          "route": {
            "coding": [
              {
                "system": "http://standardterms.edqm.eu",
                "code": "20045000",
                "display": "Intravenous use"
              },
              {
                "system": "http://snomed.info/sct",
                "code": "47625008",
                "version": "http://snomed.info/sct/900000000000207008/version/20230731",
                "display": "Intravenous route (qualifier value)"
              }
            ]
          },
          "rateRatio": {
            "numerator": {
              "system": "http://unitsofmeasure.org",
              "value": 1500,
              "code": "mg",
              "unit": "mg"
            },
            "denominator": {
              "system": "http://unitsofmeasure.org",
              "value": 30,
              "code": "min",
              "unit": "Minuten"
            }
          },
          "dose": {
            "system": "http://unitsofmeasure.org",
            "value": 1500,
            "code": "mg",
            "unit": "mg"
          },
          "text": "Dalbavancin 1500 mg als 30-minütige Infusion"
        },
        "status": "completed",
        "category": {
          "coding": [
            {
              "code": "inpatient",
              "system": "http://terminology.hl7.org/CodeSystem/medication-admin-category",
              "display": "Inpatient"
            }
          ]
        },
        "medicationReference": {
          "reference": "Medication/mii-exa-test-data-medication-dalbavancin"
        },
        "subject": {
          "reference": "Patient/mii-exa-test-data-patient-1"
        },
        "context": {
          "reference": "Encounter/mii-exa-test-data-patient-1-encounter-1"
        },
        "request": {
          "reference": "MedicationRequest/mii-exa-test-data-patient-1-medrequest-1"
        }
      }
    },
    {
      "request": {
        "method": "POST",
        "url": "MedicationAdministration"
      },
      "fullUrl": "https://www.medizininformatik-initiative.de/MedicationAdministration/mii-exa-test-data-patient-1-medadmin-2",
      "resource": {
        "resourceType": "MedicationAdministration",
        "id": "mii-exa-test-data-patient-1-medadmin-2",
        "meta": {
          "profile": [
            "https://www.medizininformatik-initiative.de/fhir/core/modul-medikation/StructureDefinition/MedicationAdministration"
          ]
        },
        "identifier": [
          {
            "system": "https://www.charite.de/fhir/sid/MedicationAdministrations",
            "value": "MA_0000002"
          }
        ],
        "partOf": [
          {
            "reference": "Procedure/mii-exa-test-data-patient-1-prozedur-2"
          }
        ],
        "effectivePeriod": {
          "start": "2024-02-16T10:20:00.000+01:00"
        },
        "note": [
          {
            "text": "abgebrochen fehlerhafte Eingabe"
          }
        ],
        "dosage": {
          "site": {
            "coding": [
              {
                "system": "http://snomed.info/sct",
                "code": "789218009",
                "version": "http://snomed.info/sct/900000000000207008/version/20230731",
                "display": "Structure of dorsum of left hand (body structure)"
              }
            ]
          },
          "route": {
            "coding": [
              {
                "system": "http://standardterms.edqm.eu",
                "code": "20045000",
                "display": "Intravenous use"
              },
              {
                "system": "http://snomed.info/sct",
                "code": "47625008",
                "version": "http://snomed.info/sct/900000000000207008/version/20230731",
                "display": "Intravenous route (qualifier value)"
              }
            ]
          },
          "dose": {
            "system": "http://unitsofmeasure.org",
            "value": 1500,
            "code": "mg",
            "unit": "mg"
          },
          "rateQuantity": {
            "system": "http://unitsofmeasure.org",
            "value": 1500,
            "code": "mg/h",
            "unit": "mg/Stunde"
          },
          "text": "Dalbavancin 1500 mg als 30-minütige Infusion"
        },
        "status": "entered-in-error",
        "category": {
          "coding": [
            {
              "code": "inpatient",
              "system": "http://terminology.hl7.org/CodeSystem/medication-admin-category",
              "display": "Inpatient"
            }
          ]
        },
        "medicationReference": {
          "reference": "Medication/mii-exa-test-data-medication-dalbavancin"
        },
        "subject": {
          "reference": "Patient/mii-exa-test-data-patient-1"
        },
        "context": {
          "reference": "Encounter/mii-exa-test-data-patient-1-encounter-1"
        },
        "request": {
          "reference": "MedicationRequest/mii-exa-test-data-patient-1-medrequest-1"
        }
      }
    },
    {
      "request": {
        "method": "POST",
        "url": "MedicationRequest"
      },
      "fullUrl": "https://www.medizininformatik-initiative.de/MedicationRequest/mii-exa-test-data-patient-1-medrequest-1",
      "resource": {
        "resourceType": "MedicationRequest",
        "id": "mii-exa-test-data-patient-1-medrequest-1",
        "meta": {
          "profile": [
            "https://www.medizininformatik-initiative.de/fhir/core/modul-medikation/StructureDefinition/MedicationRequest"
          ]
        },
        "identifier": [
          {
            "system": "https://www.charite.de/fhir/sid/MedicationOrders",
            "value": "MO_0000001"
          }
        ],
        "dosageInstruction": [
          {
            "timing": {
              "event": [
                "2024-02-16"
              ]
            },
            "doseAndRate": [
              {
                "rateRatio": {
                  "numerator": {
                    "system": "http://unitsofmeasure.org",
                    "value": 1500,
                    "code": "mg",
                    "unit": "mg"
                  },
                  "denominator": {
                    "system": "http://unitsofmeasure.org",
                    "value": 30,
                    "code": "min",
                    "unit": "Minuten"
                  }
                },
                "doseQuantity": {
                  "value": 1500,
                  "code": "mg",
                  "system": "http://unitsofmeasure.org",
                  "unit": "mg"
                }
              }
            ],
            "maxDosePerAdministration": {
              "system": "http://unitsofmeasure.org",
              "value": 1500,
              "code": "mg",
              "unit": "mg"
            },
            "text": "Dalbavancin 1500 mg als 30-minütige Infusion",
            "route": {
              "coding": [
                {
                  "code": "20045000",
                  "system": "http://standardterms.edqm.eu",
                  "display": "Intravenous use"
                }
              ]
            }
          }
        ],
        "substitution": {
          "allowedBoolean": false
        },
        "status": "active",
        "intent": "order",
        "medicationReference": {
          "reference": "Medication/mii-exa-test-data-medication-dalbavancin"
        },
        "subject": {
          "reference": "Patient/mii-exa-test-data-patient-1"
        },
        "encounter": {
          "reference": "Encounter/mii-exa-test-data-patient-1-encounter-1"
        },
        "authoredOn": "2024-02-16T08:37:00+01:00"
      }
    },
    {
      "request": {
        "method": "POST",
        "url": "MedicationRequest"
      },
      "fullUrl": "https://www.medizininformatik-initiative.de/MedicationRequest/mii-exa-test-data-patient-1-medrequest-2",
      "resource": {
        "resourceType": "MedicationRequest",
        "id": "mii-exa-test-data-patient-1-medrequest-2",
        "meta": {
          "profile": [
            "https://www.medizininformatik-initiative.de/fhir/core/modul-medikation/StructureDefinition/MedicationRequest"
          ]
        },
        "identifier": [
          {
            "system": "https://www.charite.de/fhir/sid/MedicationOrders",
            "value": "MO_0000002"
          }
        ],
        "dosageInstruction": [
          {
            "timing": {
              "event": [
                "2024-02-16"
              ]
            },
            "doseAndRate": [
              {
                "rateRange": {
                  "low": {
                    "system": "http://unitsofmeasure.org",
                    "value": 60,
                    "code": "mL/h"
                  },
                  "high": {
                    "system": "http://unitsofmeasure.org",
                    "value": 120,
                    "code": "mL/h"
                  }
                },
                "doseQuantity": {
                  "value": 1500,
                  "code": "mg",
                  "system": "http://unitsofmeasure.org",
                  "unit": "mg"
                }
              }
            ],
            "text": "Dalbavancin 1500 mg als 30-minütige Infusion",
            "route": {
              "coding": [
                {
                  "code": "20045000",
                  "system": "http://standardterms.edqm.eu",
                  "display": "Intravenous use"
                }
              ]
            }
          }
        ],
        "status": "active",
        "intent": "option",
        "medicationReference": {
          "reference": "Medication/mii-exa-test-data-medication-dalbavancin"
        },
        "subject": {
          "reference": "Patient/mii-exa-test-data-patient-1"
        },
        "encounter": {
          "reference": "Encounter/mii-exa-test-data-patient-1-encounter-1"
        },
        "authoredOn": "2024-02-16T08:37:00+01:00",
        "priorPrescription": {
          "reference": "MedicationRequest/mii-exa-test-data-patient-1-medrequest-1"
        }
      }
    },
    {
      "request": {
        "method": "POST",
        "url": "MedicationRequest"
      },
      "fullUrl": "https://www.medizininformatik-initiative.de/MedicationRequest/mii-exa-test-data-patient-1-medrequest-3",
      "resource": {
        "resourceType": "MedicationRequest",
        "id": "mii-exa-test-data-patient-1-medrequest-3",
        "meta": {
          "profile": [
            "https://www.medizininformatik-initiative.de/fhir/core/modul-medikation/StructureDefinition/MedicationRequest"
          ]
        },
        "identifier": [
          {
            "system": "https://www.charite.de/fhir/sid/MedicationOrders",
            "value": "MO_0000003"
          }
        ],
        "dosageInstruction": [
          {
            "timing": {
              "event": [
                "2024-02-20T10:00:00+01:00"
              ]
            },
            "doseAndRate": [
              {
                "rateQuantity": {
                  "system": "http://unitsofmeasure.org",
                  "value": 5,
                  "code": "mg/min"
                }
              }
            ],
            "text": "Propofol 6.5 mg/min IV via Perfusor",
            "route": {
              "coding": [
                {
                  "code": "20045000",
                  "system": "http://standardterms.edqm.eu",
                  "display": "Intravenous use"
                }
              ]
            },
            "method": {
              "coding": [
                {
                  "code": "129331004",
                  "system": "http://snomed.info/sct",
                  "version": "http://snomed.info/sct/900000000000207008/version/20230731",
                  "display": "Perfusion - action (qualifier value)"
                }
              ]
            }
          }
        ],
        "status": "cancelled",
        "intent": "order",
        "medicationReference": {
          "reference": "Medication/mii-exa-test-data-medication-propofol"
        },
        "subject": {
          "reference": "Patient/mii-exa-test-data-patient-1"
        },
        "encounter": {
          "reference": "Encounter/mii-exa-test-data-patient-1-encounter-2"
        },
        "authoredOn": "2024-02-20T09:55:00+01:00"
      }
    },
    {
      "request": {
        "method": "POST",
        "url": "MedicationRequest"
      },
      "fullUrl": "https://www.medizininformatik-initiative.de/MedicationRequest/mii-exa-test-data-patient-1-medrequest-4",
      "resource": {
        "resourceType": "MedicationRequest",
        "id": "mii-exa-test-data-patient-1-medrequest-4",
        "meta": {
          "profile": [
            "https://www.medizininformatik-initiative.de/fhir/core/modul-medikation/StructureDefinition/MedicationRequest"
          ]
        },
        "identifier": [
          {
            "system": "https://www.charite.de/fhir/sid/MedicationOrders",
            "value": "MO_0000004"
          }
        ],
        "dosageInstruction": [
          {
            "timing": {
              "event": [
                "2024-02-20T10:00:00+01:00"
              ]
            },
            "doseAndRate": [
              {
                "rateRatio": {
                  "numerator": {
                    "system": "http://unitsofmeasure.org",
                    "value": 6.5,
                    "code": "mg",
                    "unit": "mg"
                  },
                  "denominator": {
                    "system": "http://unitsofmeasure.org",
                    "value": 1,
                    "code": "min",
                    "unit": "Minuten"
                  }
                }
              }
            ],
            "text": "Propofol 6.5 mg/min IV via Perfusor",
            "route": {
              "coding": [
                {
                  "code": "20045000",
                  "system": "http://standardterms.edqm.eu",
                  "display": "Intravenous use"
                }
              ]
            },
            "method": {
              "coding": [
                {
                  "code": "129331004",
                  "system": "http://snomed.info/sct",
                  "version": "http://snomed.info/sct/900000000000207008/version/20230731",
                  "display": "Perfusion - action (qualifier value)"
                }
              ]
            }
          }
        ],
        "status": "active",
        "intent": "order",
        "medicationReference": {
          "reference": "Medication/mii-exa-test-data-medication-propofol"
        },
        "subject": {
          "reference": "Patient/mii-exa-test-data-patient-1"
        },
        "encounter": {
          "reference": "Encounter/mii-exa-test-data-patient-1-encounter-2"
        },
        "authoredOn": "2024-02-20T10:00:00+01:00",
        "priorPrescription": {
          "reference": "MedicationRequest/mii-exa-test-data-patient-1-medrequest-2"
        }
      }
    },
    {
      "request": {
        "method": "POST",
        "url": "MedicationStatement"
      },
      "fullUrl": "https://www.medizininformatik-initiative.de/MedicationStatement/mii-exa-test-data-patient-1-medstatement-1",
      "resource": {
        "resourceType": "MedicationStatement",
        "id": "mii-exa-test-data-patient-1-medstatement-1",
        "meta": {
          "profile": [
            "https://www.medizininformatik-initiative.de/fhir/core/modul-medikation/StructureDefinition/MedicationStatement"
          ]
        },
        "identifier": [
          {
            "system": "https://www.charite.de/fhir/sid/MedicationStatements",
            "value": "MS_0000001"
          }
        ],
        "category": {
          "coding": [
            {
              "system": "http://terminology.hl7.org/CodeSystem/medication-statement-category",
              "code": "outpatient"
            },
            {
              "system": "http://ihe-d.de/CodeSystems/FallkontextBeiDokumentenerstellung",
              "code": "E210",
              "display": "stationäre Aufnahme"
            }
          ]
        },
        "effectivePeriod": {
          "start": "2020-08-30"
        },
        "reasonCode": [
          {
            "coding": [
              {
                "code": "787930001",
                "system": "http://snomed.info/sct",
                "version": "http://snomed.info/sct/900000000000207008/version/20230731",
                "display": "Direct thrombin inhibitor prophylaxis indicated (situation)"
              }
            ]
          }
        ],
        "dosage": [
          {
            "timing": {
              "repeat": {
                "when": [
                  "CD"
                ],
                "frequency": 1,
                "period": 1,
                "periodUnit": "d"
              }
            },
            "route": {
              "coding": [
                {
                  "code": "20053000",
                  "system": "http://standardterms.edqm.eu",
                  "display": "Oral use"
                }
              ]
            },
            "text": "ASS 100 mg 1x täglich mittags eine Tablette oral"
          }
        ],
        "status": "active",
        "medicationReference": {
          "reference": "Medication/mii-exa-test-data-medication-ass-100"
        },
        "subject": {
          "reference": "Patient/mii-exa-test-data-patient-1"
        },
        "context": {
          "reference": "Encounter/mii-exa-test-data-patient-1-encounter-1"
        },
        "dateAsserted": "2024-02-14",
        "informationSource": {
          "reference": "Patient/mii-exa-test-data-patient-1"
        }
      }
    },
    {
      "request": {
        "method": "POST",
        "url": "MedicationStatement"
      },
      "fullUrl": "https://www.medizininformatik-initiative.de/MedicationStatement/mii-exa-test-data-patient-1-medstatement-2",
      "resource": {
        "resourceType": "MedicationStatement",
        "id": "mii-exa-test-data-patient-1-medstatement-2",
        "meta": {
          "profile": [
            "https://www.medizininformatik-initiative.de/fhir/core/modul-medikation/StructureDefinition/MedicationStatement"
          ]
        },
        "identifier": [
          {
            "system": "https://www.charite.de/fhir/sid/MedicationStatements",
            "value": "MS_0000002"
          }
        ],
        "basedOn": [
          {
            "reference": "MedicationRequest/mii-exa-test-data-patient-1-medrequest-1"
          }
        ],
        "partOf": [
          {
            "reference": "Procedure/mii-exa-test-data-patient-1-prozedur-2"
          }
        ],
        "category": {
          "coding": [
            {
              "system": "http://terminology.hl7.org/CodeSystem/medication-statement-category",
              "code": "inpatient"
            },
            {
              "system": "http://ihe-d.de/CodeSystems/FallkontextBeiDokumentenerstellung",
              "code": "E200",
              "display": "stationärer Aufenthalt"
            }
          ]
        },
        "effectivePeriod": {
          "start": "2024-02-16T10:20:00.000+01:00",
          "end": "2024-02-16T10:50:00.000+01:00"
        },
        "reasonReference": [
          {
            "reference": "Condition/mii-exa-test-data-patient-1-diagnose-1"
          }
        ],
        "dosage": [
          {
            "site": {
              "coding": [
                {
                  "system": "http://snomed.info/sct",
                  "code": "789218009",
                  "version": "http://snomed.info/sct/900000000000207008/version/20230731",
                  "display": "Structure of dorsum of left hand (body structure)"
                }
              ]
            },
            "route": {
              "coding": [
                {
                  "system": "http://standardterms.edqm.eu",
                  "code": "20045000",
                  "display": "Intravenous use"
                },
                {
                  "system": "http://snomed.info/sct",
                  "code": "47625008",
                  "version": "http://snomed.info/sct/900000000000207008/version/20230731",
                  "display": "Intravenous route (qualifier value)"
                }
              ]
            },
            "doseAndRate": [
              {
                "rateRatio": {
                  "numerator": {
                    "system": "http://unitsofmeasure.org",
                    "value": 1500,
                    "code": "mg",
                    "unit": "mg"
                  },
                  "denominator": {
                    "system": "http://unitsofmeasure.org",
                    "value": 30,
                    "code": "min",
                    "unit": "Minuten"
                  }
                },
                "doseQuantity": {
                  "system": "http://unitsofmeasure.org",
                  "value": 1500,
                  "code": "mg",
                  "unit": "mg"
                }
              }
            ],
            "text": "Dalbavancin 1500 mg als 30-minütige Infusion"
          }
        ],
        "status": "completed",
        "medicationReference": {
          "reference": "Medication/mii-exa-test-data-medication-dalbavancin"
        },
        "subject": {
          "reference": "Patient/mii-exa-test-data-patient-1"
        },
        "context": {
          "reference": "Encounter/mii-exa-test-data-patient-1-encounter-1"
        },
        "dateAsserted": "2024-02-16"
      }
    },
    {
      "request": {
        "method": "POST",
        "url": "MedicationStatement"
      },
      "fullUrl": "https://www.medizininformatik-initiative.de/MedicationStatement/mii-exa-test-data-patient-1-medstatement-3",
      "resource": {
        "resourceType": "MedicationStatement",
        "id": "mii-exa-test-data-patient-1-medstatement-3",
        "meta": {
          "profile": [
            "https://www.medizininformatik-initiative.de/fhir/core/modul-medikation/StructureDefinition/MedicationStatement"
          ]
        },
        "identifier": [
          {
            "system": "https://www.charite.de/fhir/sid/MedicationStatements",
            "value": "MS_0000003"
          }
        ],
        "basedOn": [
          {
            "reference": "MedicationRequest/mii-exa-test-data-patient-1-medrequest-3"
          }
        ],
        "category": {
          "coding": [
            {
              "system": "http://terminology.hl7.org/CodeSystem/medication-statement-category",
              "code": "inpatient"
            },
            {
              "system": "http://ihe-d.de/CodeSystems/FallkontextBeiDokumentenerstellung",
              "code": "E200",
              "display": "stationärer Aufenthalt"
            }
          ]
        },
        "effectivePeriod": {
          "start": "2024-02-20T09:55:00+01:00"
        },
        "dosage": [
          {
            "route": {
              "coding": [
                {
                  "system": "http://standardterms.edqm.eu",
                  "code": "20045000",
                  "display": "Intravenous use"
                },
                {
                  "system": "http://snomed.info/sct",
                  "code": "47625008",
                  "version": "http://snomed.info/sct/900000000000207008/version/20230731",
                  "display": "Intravenous route (qualifier value)"
                }
              ]
            },
            "doseAndRate": [
              {
                "rateQuantity": {
                  "system": "http://unitsofmeasure.org",
                  "value": 5,
                  "code": "mg/min"
                }
              }
            ]
          }
        ],
        "status": "entered-in-error",
        "medicationReference": {
          "reference": "Medication/mii-exa-test-data-medication-propofol"
        },
        "subject": {
          "reference": "Patient/mii-exa-test-data-patient-1"
        },
        "context": {
          "reference": "Encounter/mii-exa-test-data-patient-1-encounter-1"
        },
        "dateAsserted": "2024-02-20"
      }
    },
    {
      "request": {
        "method": "POST",
        "url": "Specimen"
      },
      "fullUrl": "https://www.medizininformatik-initiative.de/Specimen/mii-exa-test-data-patient-1-specimen-1",
      "resource": {
        "resourceType": "Specimen",
        "id": "mii-exa-test-data-patient-1-specimen-1",
        "meta": {
          "profile": [
            "https://www.medizininformatik-initiative.de/fhir/ext/modul-biobank/StructureDefinition/Specimen"
          ]
        },
        "extension": [
          {
            "url": "https://www.medizininformatik-initiative.de/fhir/ext/modul-biobank/StructureDefinition/VerwaltendeOrganisation",
            "valueReference": {
              "reference": "Organization/mii-exa-test-data-organization-biobank-charite"
            }
          },
          {
            "url": "https://www.medizininformatik-initiative.de/fhir/ext/modul-biobank/StructureDefinition/Diagnose",
            "valueReference": {
              "reference": "Condition/mii-exa-test-data-patient-1-diagnose-1"
            }
          }
        ],
        "identifier": [
          {
            "system": "https://www.charite.de/fhir/sid/Bioproben",
            "value": "BP_000001"
          }
        ],
        "type": {
          "coding": [
            {
              "code": "122555007",
              "system": "http://snomed.info/sct",
              "version": "http://snomed.info/sct/900000000000207008/version/20230731",
              "display": "Venous blood specimen (specimen)"
            }
          ]
        },
        "collection": {
          "bodySite": {
            "coding": [
              {
                "code": "789218009",
                "system": "http://snomed.info/sct",
                "version": "http://snomed.info/sct/900000000000207008/version/20230731",
                "display": "Structure of dorsum of left hand (body structure)"
              }
            ]
          },
          "collectedDateTime": "2024-02-15T11:05:00+01:00",
          "fastingStatusCodeableConcept": {
            "coding": [
              {
                "code": "F",
                "system": "http://terminology.hl7.org/CodeSystem/v2-0916",
                "display": "Patient was fasting prior to the procedure."
              }
            ]
          }
        },
        "container": [
          {
            "type": {
              "coding": [
                {
                  "code": "83059008",
                  "system": "http://snomed.info/sct",
                  "version": "http://snomed.info/sct/900000000000207008/version/20230731",
                  "display": "Tube, device (physical object)"
                }
              ]
            },
            "capacity": {
              "value": 10,
              "code": "ml",
              "system": "http://unitsofmeasure.org"
            },
            "specimenQuantity": {
              "value": 10,
              "code": "ml",
              "system": "http://unitsofmeasure.org"
            },
            "additiveReference": {
              "reference": "Substance/mii-exa-test-data-patient-1-substance-1"
            }
          }
        ],
        "status": "available",
        "subject": {
          "reference": "Patient/mii-exa-test-data-patient-1"
        }
      }
    },
    {
      "request": {
        "method": "POST",
        "url": "Substance"
      },
      "fullUrl": "https://www.medizininformatik-initiative.de/Substance/mii-exa-test-data-patient-1-substance-1",
      "resource": {
        "resourceType": "Substance",
        "id": "mii-exa-test-data-patient-1-substance-1",
        "meta": {
          "profile": [
            "https://www.medizininformatik-initiative.de/fhir/ext/modul-biobank/StructureDefinition/Substance"
          ]
        },
        "category": [
          {
            "coding": [
              {
                "code": "chemical",
                "system": "http://terminology.hl7.org/CodeSystem/substance-category",
                "display": "Chemical"
              }
            ]
          }
        ],
        "code": {
          "coding": [
            {
              "code": "69519002",
              "system": "http://snomed.info/sct",
              "version": "http://snomed.info/sct/900000000000207008/version/20230731",
              "display": "Edetic acid (substance)"
            }
          ]
        }
      }
    },
    {
      "request": {
        "method": "POST",
        "url": "Device"
      },
      "fullUrl": "https://www.medizininformatik-initiative.de/Device/mii-exa-test-data-device-roche-cobas",
      "resource": {
        "resourceType": "Device",
        "id": "mii-exa-test-data-device-roche-cobas",
        "deviceName": [
          {
            "name": "cobas",
            "type": "manufacturer-name"
          }
        ],
        "status": "active",
        "manufacturer": "Roche"
      }
    },
    {
      "request": {
        "method": "POST",
        "url": "Device"
      },
      "fullUrl": "https://www.medizininformatik-initiative.de/Device/mii-exa-test-data-device-roche-cobas-c303",
      "resource": {
        "resourceType": "Device",
        "id": "mii-exa-test-data-device-roche-cobas-c303",
        "deviceName": [
          {
            "name": "cobas",
            "type": "manufacturer-name"
          }
        ],
        "status": "active",
        "manufacturer": "Roche",
        "modelNumber": "c 303",
        "parent": {
          "reference": "Device/mii-exa-test-data-device-roche-cobas"
        }
      }
    },
    {
      "request": {
        "method": "POST",
        "url": "Organization"
      },
      "fullUrl": "https://www.medizininformatik-initiative.de/Organization/mii-exa-test-data-organization-biobank-charite",
      "resource": {
        "resourceType": "Organization",
        "id": "mii-exa-test-data-organization-biobank-charite",
        "meta": {
          "profile": [
            "https://www.medizininformatik-initiative.de/fhir/ext/modul-biobank/StructureDefinition/Organization"
          ]
        },
        "extension": [
          {
            "url": "https://www.medizininformatik-initiative.de/fhir/ext/modul-biobank/StructureDefinition/BeschreibungSammlung",
            "valueMarkdown": "Zentrale Biobank der Charité"
          }
        ],
        "identifier": [
          {
            "system": "http://www.bbmri-eric.eu/",
            "value": "de-12345"
          }
        ],
        "alias": [
          "ZeBanC"
        ],
        "contact": [
          {
            "extension": [
              {
                "url": "https://www.medizininformatik-initiative.de/fhir/ext/modul-biobank/StructureDefinition/KontaktRolle",
                "valueString": "Direktor"
              }
            ],
            "name": {
              "given": [
                "Koch"
              ],
              "prefix": [
                "Prof."
              ],
              "family": "Robert"
            },
            "telecom": [
              {
                "system": "email",
                "value": "robert.koch@charite.de"
              }
            ],
            "address": {
              "line": [
                "Südring 7"
              ],
              "postalCode": "13353",
              "city": "Berlin"
            },
            "purpose": {
              "coding": [
                {
                  "system": "https://www.medizininformatik-initiative.de/fhir/ext/modul-biobank/CodeSystem/ContactType",
                  "code": "RESEARCH"
                }
              ]
            }
          }
        ],
        "name": "Zentrale Biobank der Charité",
        "partOf": {
          "reference": "Organization/mii-exa-test-data-organization-charite"
        }
      }
    },
    {
      "request": {
        "method": "POST",
        "url": "DiagnosticReport"
      },
      "fullUrl": "https://www.medizininformatik-initiative.de/DiagnosticReport/mii-exa-test-data-patient-1-labreport-1",
      "resource": {
        "resourceType": "DiagnosticReport",
        "id": "mii-exa-test-data-patient-1-labreport-1",
        "meta": {
          "profile": [
            "https://www.medizininformatik-initiative.de/fhir/core/modul-labor/StructureDefinition/DiagnosticReportLab"
          ]
        },
        "identifier": [
          {
            "assigner": {
              "identifier": {
                "system": "https://www.medizininformatik-initiative.de/fhir/core/CodeSystem/core-location-identifier",
                "value": "Charité"
              }
            },
            "type": {
              "coding": [
                {
                  "system": "http://terminology.hl7.org/CodeSystem/v2-0203",
                  "code": "FILL"
                }
              ]
            },
            "system": "https://www.charite.de/fhir/sid/lab-results",
            "value": "LDR_000001"
          }
        ],
        "category": [
          {
            "coding": [
              {
                "system": "http://loinc.org",
                "code": "26436-6",
                "display": "Laboratory studies (set)"
              },
              {
                "system": "http://terminology.hl7.org/CodeSystem/v2-0074",
                "code": "LAB"
              }
            ]
          }
        ],
        "code": {
          "coding": [
            {
              "system": "http://loinc.org",
              "code": "11502-2",
              "display": "Laboratory report"
            }
          ]
        },
        "basedOn": [
          {
            "reference": "ServiceRequest/mii-exa-test-data-patient-1-labrequest-1"
          }
        ],
        "performer": [
          {
            "reference": "Organization/mii-exa-test-data-organization-labor-berlin"
          }
        ],
        "specimen": [
          {
            "reference": "Specimen/mii-exa-test-data-patient-1-specimen-1"
          }
        ],
        "result": [
          {
            "reference": "Observation/mii-exa-test-data-patient-1-labobs-1"
          },
          {
            "reference": "Observation/mii-exa-test-data-patient-1-labobs-2"
          },
          {
            "reference": "Observation/mii-exa-test-data-patient-1-labobs-3"
          },
          {
            "reference": "Observation/mii-exa-test-data-patient-1-labobs-4"
          },
          {
            "reference": "Observation/mii-exa-test-data-patient-1-labobs-5"
          },
          {
            "reference": "Observation/mii-exa-test-data-patient-1-labobs-6"
          }
        ],
        "status": "final",
        "subject": {
          "reference": "Patient/mii-exa-test-data-patient-1"
        },
        "encounter": {
          "reference": "Encounter/mii-exa-test-data-patient-1-encounter-1"
        },
        "effectiveDateTime": "2024-02-15T12:00:00+01:00",
        "issued": "2024-02-15T12:00:00+01:00",
        "conclusion": "Leukozyten hoch"
      }
    },
    {
      "request": {
        "method": "POST",
        "url": "ServiceRequest"
      },
      "fullUrl": "https://www.medizininformatik-initiative.de/ServiceRequest/mii-exa-test-data-patient-1-labrequest-1",
      "resource": {
        "resourceType": "ServiceRequest",
        "id": "mii-exa-test-data-patient-1-labrequest-1",
        "meta": {
          "profile": [
            "https://www.medizininformatik-initiative.de/fhir/core/modul-labor/StructureDefinition/ServiceRequestLab"
          ]
        },
        "identifier": [
          {
            "assigner": {
              "identifier": {
                "system": "https://www.medizininformatik-initiative.de/fhir/core/CodeSystem/core-location-identifier",
                "value": "Charité"
              }
            },
            "type": {
              "coding": [
                {
                  "system": "http://terminology.hl7.org/CodeSystem/v2-0203",
                  "code": "PLAC"
                }
              ]
            },
            "system": "https://www.charite.de/fhir/sid/Laboranforderungen",
            "value": "LA_000001"
          }
        ],
        "category": [
          {
            "coding": [
              {
                "system": "http://terminology.hl7.org/CodeSystem/observation-category",
                "code": "laboratory"
              }
            ]
          }
        ],
        "code": {
          "coding": [
            {
              "code": "55429-5",
              "system": "http://loinc.org",
              "display": "Short blood count panel - Blood"
            }
          ],
          "text": "kleines Blutbild"
        },
        "specimen": [
          {
            "reference": "Specimen/mii-exa-test-data-patient-1-specimen-1"
          }
        ],
        "status": "completed",
        "intent": "order",
        "subject": {
          "reference": "Patient/mii-exa-test-data-patient-1"
        },
        "encounter": {
          "reference": "Encounter/mii-exa-test-data-patient-1-encounter-1"
        },
        "authoredOn": "2024-02-15T10:28:00+01:00"
      }
    },
    {
      "request": {
        "method": "POST",
        "url": "Organization"
      },
      "fullUrl": "https://www.medizininformatik-initiative.de/Organization/mii-exa-test-data-organization-labor-berlin",
      "resource": {
        "resourceType": "Organization",
        "id": "mii-exa-test-data-organization-labor-berlin",
        "type": [
          {
            "coding": [
              {
                "code": "prov",
                "system": "http://terminology.hl7.org/CodeSystem/organization-type",
                "display": "Healthcare Provider"
              }
            ]
          }
        ],
        "name": "Labor Berlin – Charité Vivantes GmbH"
      }
    },
    {
      "request": {
        "method": "POST",
        "url": "Observation"
      },
      "fullUrl": "https://www.medizininformatik-initiative.de/Observation/mii-exa-test-data-patient-1-labobs-1",
      "resource": {
        "resourceType": "Observation",
        "id": "mii-exa-test-data-patient-1-labobs-1",
        "meta": {
          "profile": [
            "https://www.medizininformatik-initiative.de/fhir/core/modul-labor/StructureDefinition/ObservationLab"
          ]
        },
        "identifier": [
          {
            "assigner": {
              "identifier": {
                "system": "https://www.medizininformatik-initiative.de/fhir/core/CodeSystem/core-location-identifier",
                "value": "Charité"
              }
            },
            "type": {
              "coding": [
                {
                  "system": "http://terminology.hl7.org/CodeSystem/v2-0203",
                  "code": "OBI"
                }
              ]
            },
            "system": "https://www.charite.de/fhir/sid/lab-results",
            "value": "LO_000001"
          }
        ],
        "category": [
          {
            "coding": [
              {
                "system": "http://loinc.org",
                "code": "26436-6",
                "display": "Laboratory studies (set)"
              },
              {
                "system": "http://terminology.hl7.org/CodeSystem/observation-category",
                "code": "laboratory",
                "display": "Laboratory"
              }
            ]
          }
        ],
        "basedOn": [
          {
            "reference": "ServiceRequest/mii-exa-test-data-patient-1-labrequest-1"
          }
        ],
        "interpretation": [
          {
            "coding": [
              {
                "code": "H",
                "system": "http://terminology.hl7.org/CodeSystem/v3-ObservationInterpretation",
                "display": "High"
              }
            ]
          }
        ],
        "note": [
          {
            "text": "Leukozyten EDTA-Blut Impedanzmessung"
          }
        ],
        "referenceRange": [
          {
            "appliesTo": [
              {
                "coding": [
                  {
                    "code": "248153007",
                    "system": "http://snomed.info/sct",
                    "version": "http://snomed.info/sct/900000000000207008/version/20230731",
                    "display": "Male (finding)"
                  }
                ]
              }
            ],
            "age": {
              "low": {
                "value": 18,
                "code": "a",
                "system": "http://unitsofmeasure.org",
                "unit": "year"
              },
              "high": {
                "value": 65,
                "code": "a",
                "system": "http://unitsofmeasure.org",
                "unit": "year"
              }
            },
            "low": {
              "value": 3.9,
              "code": "/nL",
              "system": "http://unitsofmeasure.org",
              "unit": "/nanoliter"
            },
            "high": {
              "value": 10.5,
              "code": "/nL",
              "system": "http://unitsofmeasure.org",
              "unit": "/nanoliter"
            },
            "type": {
              "coding": [
                {
                  "code": "normal",
                  "system": "http://terminology.hl7.org/CodeSystem/referencerange-meaning",
                  "display": "Normal Range"
                }
              ]
            }
          }
        ],
        "valueQuantity": {
          "system": "http://unitsofmeasure.org",
          "value": 17,
          "code": "/nL",
          "unit": "/nanoliter"
        },
        "status": "final",
        "code": {
          "coding": [
            {
              "code": "26464-8",
              "system": "http://loinc.org",
              "display": "Leukocytes [#/volume] in Blood"
            }
          ]
        },
        "subject": {
          "reference": "Patient/mii-exa-test-data-patient-1"
        },
        "encounter": {
          "reference": "Encounter/mii-exa-test-data-patient-1-encounter-1"
        },
        "effectiveDateTime": "2024-02-15T12:00:00+01:00",
        "issued": "2024-02-15T12:00:00+01:00",
        "method": {
          "coding": [
            {
              "code": "703452004",
              "system": "http://snomed.info/sct",
              "version": "http://snomed.info/sct/900000000000207008/version/20230731",
              "display": "Electrical impedance technique (qualifier value)"
            }
          ]
        },
        "specimen": {
          "reference": "Specimen/mii-exa-test-data-patient-1-specimen-1"
        },
        "device": {
          "reference": "Device/mii-exa-test-data-device-roche-cobas-c303"
        }
      }
    },
    {
      "request": {
        "method": "POST",
        "url": "Observation"
      },
      "fullUrl": "https://www.medizininformatik-initiative.de/Observation/mii-exa-test-data-patient-1-labobs-2",
      "resource": {
        "resourceType": "Observation",
        "id": "mii-exa-test-data-patient-1-labobs-2",
        "meta": {
          "profile": [
            "https://www.medizininformatik-initiative.de/fhir/core/modul-labor/StructureDefinition/ObservationLab"
          ]
        },
        "identifier": [
          {
            "assigner": {
              "identifier": {
                "system": "https://www.medizininformatik-initiative.de/fhir/core/CodeSystem/core-location-identifier",
                "value": "Charité"
              }
            },
            "type": {
              "coding": [
                {
                  "system": "http://terminology.hl7.org/CodeSystem/v2-0203",
                  "code": "OBI"
                }
              ]
            },
            "system": "https://www.charite.de/fhir/sid/lab-results",
            "value": "LO_000002"
          }
        ],
        "category": [
          {
            "coding": [
              {
                "system": "http://loinc.org",
                "code": "26436-6",
                "display": "Laboratory studies (set)"
              },
              {
                "system": "http://terminology.hl7.org/CodeSystem/observation-category",
                "code": "laboratory",
                "display": "Laboratory"
              }
            ]
          }
        ],
        "basedOn": [
          {
            "reference": "ServiceRequest/mii-exa-test-data-patient-1-labrequest-1"
          }
        ],
        "interpretation": [
          {
            "coding": [
              {
                "code": "N",
                "system": "http://terminology.hl7.org/CodeSystem/v3-ObservationInterpretation",
                "display": "Normal"
              }
            ]
          }
        ],
        "note": [
          {
            "text": "Erythrozyten EDTA-Blut Impedanzmessung"
          }
        ],
        "referenceRange": [
          {
            "appliesTo": [
              {
                "coding": [
                  {
                    "code": "248153007",
                    "system": "http://snomed.info/sct",
                    "version": "http://snomed.info/sct/900000000000207008/version/20230731",
                    "display": "Male (finding)"
                  }
                ]
              }
            ],
            "age": {
              "low": {
                "value": 18,
                "code": "a",
                "system": "http://unitsofmeasure.org",
                "unit": "year"
              },
              "high": {
                "value": 65,
                "code": "a",
                "system": "http://unitsofmeasure.org",
                "unit": "year"
              }
            },
            "low": {
              "value": 4.3,
              "code": "/pL",
              "system": "http://unitsofmeasure.org",
              "unit": "/picoliter"
            },
            "high": {
              "value": 5.8,
              "code": "/pL",
              "system": "http://unitsofmeasure.org",
              "unit": "/picoliter"
            },
            "type": {
              "coding": [
                {
                  "code": "normal",
                  "system": "http://terminology.hl7.org/CodeSystem/referencerange-meaning",
                  "display": "Normal Range"
                }
              ]
            }
          }
        ],
        "valueQuantity": {
          "system": "http://unitsofmeasure.org",
          "value": 5,
          "code": "/pL",
          "unit": "/nanoLiters"
        },
        "status": "final",
        "code": {
          "coding": [
            {
              "code": "26453-1",
              "system": "http://loinc.org",
              "display": "Erythrocytes [#/volume] in Blood"
            }
          ]
        },
        "subject": {
          "reference": "Patient/mii-exa-test-data-patient-1"
        },
        "encounter": {
          "reference": "Encounter/mii-exa-test-data-patient-1-encounter-1"
        },
        "effectiveDateTime": "2024-02-15T12:00:00+01:00",
        "issued": "2024-02-15T12:00:00+01:00",
        "method": {
          "coding": [
            {
              "code": "703452004",
              "system": "http://snomed.info/sct",
              "version": "http://snomed.info/sct/900000000000207008/version/20230731",
              "display": "Electrical impedance technique (qualifier value)"
            }
          ]
        },
        "specimen": {
          "reference": "Specimen/mii-exa-test-data-patient-1-specimen-1"
        },
        "device": {
          "reference": "Device/mii-exa-test-data-device-roche-cobas-c303"
        }
      }
    },
    {
      "request": {
        "method": "POST",
        "url": "Observation"
      },
      "fullUrl": "https://www.medizininformatik-initiative.de/Observation/mii-exa-test-data-patient-1-labobs-3",
      "resource": {
        "resourceType": "Observation",
        "id": "mii-exa-test-data-patient-1-labobs-3",
        "meta": {
          "profile": [
            "https://www.medizininformatik-initiative.de/fhir/core/modul-labor/StructureDefinition/ObservationLab"
          ]
        },
        "identifier": [
          {
            "assigner": {
              "identifier": {
                "system": "https://www.medizininformatik-initiative.de/fhir/core/CodeSystem/core-location-identifier",
                "value": "Charité"
              }
            },
            "type": {
              "coding": [
                {
                  "system": "http://terminology.hl7.org/CodeSystem/v2-0203",
                  "code": "OBI"
                }
              ]
            },
            "system": "https://www.charite.de/fhir/sid/lab-results",
            "value": "LO_000003"
          }
        ],
        "category": [
          {
            "coding": [
              {
                "system": "http://loinc.org",
                "code": "26436-6",
                "display": "Laboratory studies (set)"
              },
              {
                "system": "http://terminology.hl7.org/CodeSystem/observation-category",
                "code": "laboratory",
                "display": "Laboratory"
              }
            ]
          }
        ],
        "basedOn": [
          {
            "reference": "ServiceRequest/mii-exa-test-data-patient-1-labrequest-1"
          }
        ],
        "interpretation": [
          {
            "coding": [
              {
                "code": "N",
                "system": "http://terminology.hl7.org/CodeSystem/v3-ObservationInterpretation",
                "display": "Normal"
              }
            ]
          }
        ],
        "note": [
          {
            "text": "Hämatokrit EDTA-Blut Impedanzmessung"
          }
        ],
        "referenceRange": [
          {
            "appliesTo": [
              {
                "coding": [
                  {
                    "code": "248153007",
                    "system": "http://snomed.info/sct",
                    "version": "http://snomed.info/sct/900000000000207008/version/20230731",
                    "display": "Male (finding)"
                  }
                ]
              }
            ],
            "age": {
              "low": {
                "value": 18,
                "code": "a",
                "system": "http://unitsofmeasure.org",
                "unit": "year"
              },
              "high": {
                "value": 65,
                "code": "a",
                "system": "http://unitsofmeasure.org",
                "unit": "year"
              }
            },
            "low": {
              "value": 40,
              "code": "%",
              "system": "http://unitsofmeasure.org",
              "unit": "percent"
            },
            "high": {
              "value": 51,
              "code": "%",
              "system": "http://unitsofmeasure.org",
              "unit": "percent"
            },
            "type": {
              "coding": [
                {
                  "code": "normal",
                  "system": "http://terminology.hl7.org/CodeSystem/referencerange-meaning",
                  "display": "Normal Range"
                }
              ]
            }
          }
        ],
        "valueQuantity": {
          "system": "http://unitsofmeasure.org",
          "value": 45,
          "code": "%",
          "unit": "percent"
        },
        "status": "final",
        "code": {
          "coding": [
            {
              "code": "20570-8",
              "system": "http://loinc.org",
              "display": "Hematocrit [Volume Fraction] of Blood"
            }
          ]
        },
        "subject": {
          "reference": "Patient/mii-exa-test-data-patient-1"
        },
        "encounter": {
          "reference": "Encounter/mii-exa-test-data-patient-1-encounter-1"
        },
        "effectiveDateTime": "2024-02-15T12:00:00+01:00",
        "issued": "2024-02-15T12:00:00+01:00",
        "method": {
          "coding": [
            {
              "code": "703452004",
              "system": "http://snomed.info/sct",
              "version": "http://snomed.info/sct/900000000000207008/version/20230731",
              "display": "Electrical impedance technique (qualifier value)"
            }
          ]
        },
        "specimen": {
          "reference": "Specimen/mii-exa-test-data-patient-1-specimen-1"
        },
        "device": {
          "reference": "Device/mii-exa-test-data-device-roche-cobas-c303"
        }
      }
    },
    {
      "request": {
        "method": "POST",
        "url": "Observation"
      },
      "fullUrl": "https://www.medizininformatik-initiative.de/Observation/mii-exa-test-data-patient-1-labobs-4",
      "resource": {
        "resourceType": "Observation",
        "id": "mii-exa-test-data-patient-1-labobs-4",
        "meta": {
          "profile": [
            "https://www.medizininformatik-initiative.de/fhir/core/modul-labor/StructureDefinition/ObservationLab"
          ]
        },
        "identifier": [
          {
            "assigner": {
              "identifier": {
                "system": "https://www.medizininformatik-initiative.de/fhir/core/CodeSystem/core-location-identifier",
                "value": "Charité"
              }
            },
            "type": {
              "coding": [
                {
                  "system": "http://terminology.hl7.org/CodeSystem/v2-0203",
                  "code": "OBI"
                }
              ]
            },
            "system": "https://www.charite.de/fhir/sid/lab-results",
            "value": "LO_000004"
          }
        ],
        "category": [
          {
            "coding": [
              {
                "system": "http://loinc.org",
                "code": "26436-6",
                "display": "Laboratory studies (set)"
              },
              {
                "system": "http://terminology.hl7.org/CodeSystem/observation-category",
                "code": "laboratory",
                "display": "Laboratory"
              }
            ]
          }
        ],
        "basedOn": [
          {
            "reference": "ServiceRequest/mii-exa-test-data-patient-1-labrequest-1"
          }
        ],
        "interpretation": [
          {
            "coding": [
              {
                "code": "N",
                "system": "http://terminology.hl7.org/CodeSystem/v3-ObservationInterpretation",
                "display": "Normal"
              }
            ]
          }
        ],
        "note": [
          {
            "text": "Hämoglobin EDTA-Blut Photometrie"
          }
        ],
        "referenceRange": [
          {
            "appliesTo": [
              {
                "coding": [
                  {
                    "code": "248153007",
                    "system": "http://snomed.info/sct",
                    "version": "http://snomed.info/sct/900000000000207008/version/20230731",
                    "display": "Male (finding)"
                  }
                ]
              }
            ],
            "age": {
              "low": {
                "value": 18,
                "code": "a",
                "system": "http://unitsofmeasure.org",
                "unit": "year"
              },
              "high": {
                "value": 65,
                "code": "a",
                "system": "http://unitsofmeasure.org",
                "unit": "year"
              }
            },
            "low": {
              "value": 13.5,
              "code": "g/dL",
              "system": "http://unitsofmeasure.org",
              "unit": "gram per deciliter"
            },
            "high": {
              "value": 17,
              "code": "g/dL",
              "system": "http://unitsofmeasure.org",
              "unit": "gram per deciliter"
            },
            "type": {
              "coding": [
                {
                  "code": "normal",
                  "system": "http://terminology.hl7.org/CodeSystem/referencerange-meaning",
                  "display": "Normal Range"
                }
              ]
            }
          }
        ],
        "valueQuantity": {
          "system": "http://unitsofmeasure.org",
          "value": 45,
          "code": "g/dL",
          "unit": "gram per deciliter"
        },
        "status": "final",
        "code": {
          "coding": [
            {
              "code": "718-7",
              "system": "http://loinc.org",
              "display": "Hemoglobin [Mass/volume] in Blood"
            }
          ]
        },
        "subject": {
          "reference": "Patient/mii-exa-test-data-patient-1"
        },
        "encounter": {
          "reference": "Encounter/mii-exa-test-data-patient-1-encounter-1"
        },
        "effectiveDateTime": "2024-02-15T12:00:00+01:00",
        "issued": "2024-02-15T12:00:00+01:00",
        "method": {
          "coding": [
            {
              "code": "83561000052101",
              "system": "http://snomed.info/sct",
              "version": "http://snomed.info/sct/900000000000207008/version/20230731",
              "display": "Photometry technique (qualifier value)"
            }
          ]
        },
        "specimen": {
          "reference": "Specimen/mii-exa-test-data-patient-1-specimen-1"
        },
        "device": {
          "reference": "Device/mii-exa-test-data-device-roche-cobas-c303"
        }
      }
    },
    {
      "request": {
        "method": "POST",
        "url": "Observation"
      },
      "fullUrl": "https://www.medizininformatik-initiative.de/Observation/mii-exa-test-data-patient-1-labobs-5",
      "resource": {
        "resourceType": "Observation",
        "id": "mii-exa-test-data-patient-1-labobs-5",
        "meta": {
          "profile": [
            "https://www.medizininformatik-initiative.de/fhir/core/modul-labor/StructureDefinition/ObservationLab"
          ]
        },
        "identifier": [
          {
            "assigner": {
              "identifier": {
                "system": "https://www.medizininformatik-initiative.de/fhir/core/CodeSystem/core-location-identifier",
                "value": "Charité"
              }
            },
            "type": {
              "coding": [
                {
                  "system": "http://terminology.hl7.org/CodeSystem/v2-0203",
                  "code": "OBI"
                }
              ]
            },
            "system": "https://www.charite.de/fhir/sid/lab-results",
            "value": "LO_000005"
          }
        ],
        "category": [
          {
            "coding": [
              {
                "system": "http://loinc.org",
                "code": "26436-6",
                "display": "Laboratory studies (set)"
              },
              {
                "system": "http://terminology.hl7.org/CodeSystem/observation-category",
                "code": "laboratory",
                "display": "Laboratory"
              }
            ]
          }
        ],
        "basedOn": [
          {
            "reference": "ServiceRequest/mii-exa-test-data-patient-1-labrequest-1"
          }
        ],
        "interpretation": [
          {
            "coding": [
              {
                "code": "N",
                "system": "http://terminology.hl7.org/CodeSystem/v3-ObservationInterpretation",
                "display": "Normal"
              }
            ]
          }
        ],
        "note": [
          {
            "text": "Thrombozyten EDTA-Blut Impedanzmessung"
          }
        ],
        "referenceRange": [
          {
            "appliesTo": [
              {
                "coding": [
                  {
                    "code": "248153007",
                    "system": "http://snomed.info/sct",
                    "version": "http://snomed.info/sct/900000000000207008/version/20230731",
                    "display": "Male (finding)"
                  }
                ]
              }
            ],
            "age": {
              "low": {
                "value": 18,
                "code": "a",
                "system": "http://unitsofmeasure.org",
                "unit": "year"
              },
              "high": {
                "value": 65,
                "code": "a",
                "system": "http://unitsofmeasure.org",
                "unit": "year"
              }
            },
            "low": {
              "value": 150,
              "code": "/nL",
              "system": "http://unitsofmeasure.org",
              "unit": "/nanoliter"
            },
            "high": {
              "value": 370,
              "code": "/nL",
              "system": "http://unitsofmeasure.org",
              "unit": "/nanoliter"
            },
            "type": {
              "coding": [
                {
                  "code": "normal",
                  "system": "http://terminology.hl7.org/CodeSystem/referencerange-meaning",
                  "display": "Normal Range"
                }
              ]
            }
          }
        ],
        "valueQuantity": {
          "system": "http://unitsofmeasure.org",
          "value": 355,
          "code": "/nL",
          "unit": "/nanoliter"
        },
        "status": "final",
        "code": {
          "coding": [
            {
              "code": "26515-7",
              "system": "http://loinc.org",
              "display": "Platelets [#/volume] in Blood"
            }
          ]
        },
        "subject": {
          "reference": "Patient/mii-exa-test-data-patient-1"
        },
        "encounter": {
          "reference": "Encounter/mii-exa-test-data-patient-1-encounter-1"
        },
        "effectiveDateTime": "2024-02-15T12:00:00+01:00",
        "issued": "2024-02-15T12:00:00+01:00",
        "method": {
          "coding": [
            {
              "code": "703452004",
              "system": "http://snomed.info/sct",
              "version": "http://snomed.info/sct/900000000000207008/version/20230731",
              "display": "Electrical impedance technique (qualifier value)"
            }
          ]
        },
        "specimen": {
          "reference": "Specimen/mii-exa-test-data-patient-1-specimen-1"
        },
        "device": {
          "reference": "Device/mii-exa-test-data-device-roche-cobas-c303"
        }
      }
    },
    {
      "request": {
        "method": "POST",
        "url": "Observation"
      },
      "fullUrl": "https://www.medizininformatik-initiative.de/Observation/mii-exa-test-data-patient-1-labobs-6",
      "resource": {
        "resourceType": "Observation",
        "id": "mii-exa-test-data-patient-1-labobs-6",
        "meta": {
          "profile": [
            "https://www.medizininformatik-initiative.de/fhir/core/modul-labor/StructureDefinition/ObservationLab"
          ]
        },
        "identifier": [
          {
            "assigner": {
              "identifier": {
                "system": "https://www.medizininformatik-initiative.de/fhir/core/CodeSystem/core-location-identifier",
                "value": "Charité"
              }
            },
            "type": {
              "coding": [
                {
                  "system": "http://terminology.hl7.org/CodeSystem/v2-0203",
                  "code": "OBI"
                }
              ]
            },
            "system": "https://www.charite.de/fhir/sid/lab-results",
            "value": "LO_000006"
          }
        ],
        "category": [
          {
            "coding": [
              {
                "system": "http://loinc.org",
                "code": "26436-6",
                "display": "Laboratory studies (set)"
              },
              {
                "system": "http://terminology.hl7.org/CodeSystem/observation-category",
                "code": "laboratory",
                "display": "Laboratory"
              }
            ]
          }
        ],
        "basedOn": [
          {
            "reference": "ServiceRequest/mii-exa-test-data-patient-1-labrequest-1"
          }
        ],
        "status": "final",
        "code": {
          "coding": [
            {
              "code": "788-0",
              "system": "http://loinc.org",
              "display": "Erythrocyte distribution width [Ratio] by Automated count"
            }
          ]
        },
        "subject": {
          "reference": "Patient/mii-exa-test-data-patient-1"
        },
        "encounter": {
          "reference": "Encounter/mii-exa-test-data-patient-1-encounter-1"
        },
        "effectiveDateTime": "2024-02-15T12:00:00+01:00",
        "issued": "2024-02-15T12:00:00+01:00",
        "dataAbsentReason": {
          "coding": [
            {
              "code": "not-performed",
              "system": "http://terminology.hl7.org/CodeSystem/data-absent-reason",
              "display": "Not Performed"
            }
          ]
        }
      }
    },
    {
      "request": {
        "method": "POST",
        "url": "Observation"
      },
      "fullUrl": "https://www.medizininformatik-initiative.de/Observation/mii-exa-test-data-patient-1-labobs-7",
      "resource": {
        "resourceType": "Observation",
        "id": "mii-exa-test-data-patient-1-labobs-7",
        "meta": {
          "profile": [
            "https://www.medizininformatik-initiative.de/fhir/core/modul-labor/StructureDefinition/ObservationLab"
          ]
        },
        "identifier": [
          {
            "assigner": {
              "identifier": {
                "system": "https://www.medizininformatik-initiative.de/fhir/core/CodeSystem/core-location-identifier",
                "value": "Charité"
              }
            },
            "type": {
              "coding": [
                {
                  "system": "http://terminology.hl7.org/CodeSystem/v2-0203",
                  "code": "OBI"
                }
              ]
            },
            "system": "https://www.charite.de/fhir/sid/lab-results",
            "value": "LO_000007"
          }
        ],
        "category": [
          {
            "coding": [
              {
                "system": "http://loinc.org",
                "code": "26436-6",
                "display": "Laboratory studies (set)"
              },
              {
                "system": "http://terminology.hl7.org/CodeSystem/observation-category",
                "code": "laboratory",
                "display": "Laboratory"
              }
            ]
          }
        ],
        "basedOn": [
          {
            "reference": "ServiceRequest/mii-exa-test-data-patient-1-labrequest-1"
          }
        ],
        "status": "final",
        "code": {
          "coding": [
            {
              "code": "788-0",
              "system": "http://loinc.org",
              "display": "Erythrocyte distribution width [Ratio] by Automated count"
            }
          ]
        },
        "subject": {
          "reference": "Patient/mii-exa-test-data-patient-1"
        },
        "encounter": {
          "reference": "Encounter/mii-exa-test-data-patient-1-encounter-1"
        },
        "effectiveDateTime": "2024-02-15T12:00:00+01:00",
        "issued": "2024-02-15T12:00:00+01:00",
        "dataAbsentReason": {
          "coding": [
            {
              "code": "not-performed",
              "system": "http://terminology.hl7.org/CodeSystem/data-absent-reason",
              "display": "Not Performed"
            }
          ]
        }
      }
    },
    {
      "request": {
        "method": "POST",
        "url": "DiagnosticReport"
      },
      "fullUrl": "https://www.medizininformatik-initiative.de/DiagnosticReport/mii-exa-test-data-patient-1-mibi-befund-1",
      "resource": {
        "resourceType": "DiagnosticReport",
        "id": "mii-exa-test-data-patient-1-mibi-befund-1",
        "meta": {
          "profile": [
            "https://www.medizininformatik-initiative.de/fhir/modul-mikrobio/StructureDefinition/mii-pr-mikrobio-diagnostic-report"
          ]
        },
        "identifier": [
          {
            "assigner": {
              "identifier": {
                "system": "https://www.medizininformatik-initiative.de/fhir/core/CodeSystem/core-location-identifier",
                "value": "Charité"
              }
            },
            "type": {
              "coding": [
                {
                  "system": "http://terminology.hl7.org/CodeSystem/v2-0203",
                  "code": "FILL"
                }
              ]
            },
            "system": "https://www.charite.de/fhir/sid/lab-results",
            "value": "MiBiDR_000001"
          }
        ],
        "basedOn": [
          {
            "reference": "ServiceRequest/mii-exa-test-data-patient-1-labrequest-2"
          }
        ],
        "category": [
          {
            "coding": [
              {
                "system": "http://loinc.org",
                "code": "26436-6",
                "display": "Laboratory studies (set)"
              },
              {
                "system": "http://terminology.hl7.org/CodeSystem/v2-0074",
                "code": "LAB"
              },
              {
                "system": "http://snomed.info/sct",
                "code": "4341000179107",
                "version": "http://snomed.info/sct/900000000000207008/version/20230731"
              }
            ]
          }
        ],
        "code": {
          "coding": [
            {
              "system": "http://loinc.org",
              "code": "11502-2",
              "display": "Laboratory report"
            }
          ]
        },
        "performer": [
          {
            "reference": "Organization/mii-exa-test-data-organization-labor-berlin"
          }
        ],
        "specimen": [
          {
            "reference": "Specimen/mii-exa-test-data-patient-1-specimen-2"
          }
        ],
        "result": [
          {
            "reference": "Observation/mii-exa-test-data-patient-1-kulturnachweis-1"
          },
          {
            "reference": "Observation/mii-exa-test-data-patient-1-mikrobio-keimzahl-1"
          },
          {
            "reference": "Observation/mii-exa-test-data-patient-1-mikrobio-empfindlichkeit-1"
          },
          {
            "reference": "Observation/mii-exa-test-data-patient-1-mikrobio-mikroskopie-1"
          },
          {
            "reference": "Observation/mii-exa-test-data-patient-1-mikrobio-molekulare-diagnostik-1"
          },
          {
            "reference": "Observation/mii-exa-test-data-patient-1-mikrobio-serologie-immunologie-1"
          },
          {
            "reference": "Observation/mii-exa-test-data-patient-1-mikrobio-mre-klasse-1"
          }
        ],
        "status": "final",
        "subject": {
          "reference": "Patient/mii-exa-test-data-patient-1"
        },
        "encounter": {
          "reference": "Encounter/mii-exa-test-data-patient-1-encounter-1"
        },
        "effectiveDateTime": "2024-02-16T16:15:00+01:00",
        "issued": "2024-02-16T16:15:00+01:00"
      }
    },
    {
      "request": {
        "method": "POST",
        "url": "ServiceRequest"
      },
      "fullUrl": "https://www.medizininformatik-initiative.de/ServiceRequest/mii-exa-test-data-patient-1-labrequest-2",
      "resource": {
        "resourceType": "ServiceRequest",
        "id": "mii-exa-test-data-patient-1-labrequest-2",
        "meta": {
          "profile": [
            "https://www.medizininformatik-initiative.de/fhir/core/modul-labor/StructureDefinition/ServiceRequestLab"
          ]
        },
        "identifier": [
          {
            "assigner": {
              "identifier": {
                "system": "https://www.medizininformatik-initiative.de/fhir/core/CodeSystem/core-location-identifier",
                "value": "Charité"
              }
            },
            "type": {
              "coding": [
                {
                  "system": "http://terminology.hl7.org/CodeSystem/v2-0203",
                  "code": "PLAC"
                }
              ]
            },
            "system": "https://www.charite.de/fhir/sid/Laboranforderungen",
            "value": "MiBiA_000001"
          }
        ],
        "category": [
          {
            "coding": [
              {
                "system": "http://terminology.hl7.org/CodeSystem/observation-category",
                "code": "laboratory"
              }
            ]
          }
        ],
        "specimen": [
          {
            "reference": "Specimen/mii-exa-test-data-patient-1-specimen-2"
          }
        ],
        "status": "completed",
        "intent": "order",
        "code": {
          "coding": [
            {
              "code": "11475-1",
              "system": "http://loinc.org",
              "display": "Microorganism identified in Specimen by Culture"
            }
          ]
        },
        "subject": {
          "reference": "Patient/mii-exa-test-data-patient-1"
        },
        "encounter": {
          "reference": "Encounter/mii-exa-test-data-patient-1-encounter-1"
        },
        "authoredOn": "2024-02-14T14:15:00+01:00"
      }
    },
    {
      "request": {
        "method": "POST",
        "url": "Specimen"
      },
      "fullUrl": "https://www.medizininformatik-initiative.de/Specimen/mii-exa-test-data-patient-1-specimen-2",
      "resource": {
        "resourceType": "Specimen",
        "id": "mii-exa-test-data-patient-1-specimen-2",
        "meta": {
          "profile": [
            "https://www.medizininformatik-initiative.de/fhir/ext/modul-biobank/StructureDefinition/Specimen"
          ]
        },
        "extension": [
          {
            "url": "https://www.medizininformatik-initiative.de/fhir/ext/modul-biobank/StructureDefinition/VerwaltendeOrganisation",
            "valueReference": {
              "reference": "Organization/mii-exa-test-data-organization-biobank-charite"
            }
          }
        ],
        "identifier": [
          {
            "system": "https://www.charite.de/fhir/sid/Bioproben",
            "value": "BP_000002"
          }
        ],
        "type": {
          "coding": [
            {
              "code": "258503004",
              "system": "http://snomed.info/sct",
              "version": "http://snomed.info/sct/900000000000207008/version/20230731",
              "display": "Skin swab (specimen)"
            }
          ]
        },
        "collection": {
          "bodySite": {
            "coding": [
              {
                "code": "45206002",
                "system": "http://snomed.info/sct",
                "version": "http://snomed.info/sct/900000000000207008/version/20230731",
                "display": "Nasal structure (body structure)"
              }
            ]
          },
          "collectedDateTime": "2024-02-14T15:00:00+01:00"
        },
        "container": [
          {
            "type": {
              "coding": [
                {
                  "code": "83059008",
                  "system": "http://snomed.info/sct",
                  "version": "http://snomed.info/sct/900000000000207008/version/20230731",
                  "display": "Tube, device (physical object)"
                }
              ]
            }
          }
        ],
        "status": "available",
        "subject": {
          "reference": "Patient/mii-exa-test-data-patient-1"
        }
      }
    },
    {
      "request": {
        "method": "POST",
        "url": "Observation"
      },
      "fullUrl": "https://www.medizininformatik-initiative.de/Observation/mii-exa-test-data-patient-1-kulturnachweis-1",
      "resource": {
        "resourceType": "Observation",
        "id": "mii-exa-test-data-patient-1-kulturnachweis-1",
        "meta": {
          "profile": [
            "https://www.medizininformatik-initiative.de/fhir/modul-mikrobio/StructureDefinition/mii-pr-mikrobio-kultur-nachweis"
          ]
        },
        "identifier": [
          {
            "assigner": {
              "identifier": {
                "system": "https://www.medizininformatik-initiative.de/fhir/core/CodeSystem/core-location-identifier",
                "value": "Charité"
              }
            },
            "type": {
              "coding": [
                {
                  "system": "http://terminology.hl7.org/CodeSystem/v2-0203",
                  "code": "OBI"
                }
              ]
            },
            "system": "https://www.charite.de/fhir/sid/lab-results",
            "value": "MiBiKN_000001"
          }
        ],
        "category": [
          {
            "coding": [
              {
                "system": "http://loinc.org",
                "code": "26436-6",
                "display": "Laboratory studies (set)"
              },
              {
                "system": "http://terminology.hl7.org/CodeSystem/observation-category",
                "code": "laboratory",
                "display": "Laboratory"
              },
              {
                "system": "http://loinc.org",
                "code": "18725-2",
                "display": "Microbiology studies"
              }
            ]
          }
        ],
        "component": [
          {
            "code": {
              "coding": [
                {
                  "system": "http://loinc.org",
                  "code": "89248-9",
                  "display": "Microorganism identified event index case"
                }
              ]
            },
            "valueCodeableConcept": {
              "coding": [
                {
                  "code": "115329001",
                  "system": "http://snomed.info/sct",
                  "version": "http://snomed.info/sct/900000000000207008/version/20230731",
                  "display": "Methicillin resistant Staphylococcus aureus"
                }
              ]
            }
          }
        ],
        "code": {
          "coding": [
            {
              "system": "http://loinc.org",
              "code": "11475-1",
              "display": "Microorganism identified in Specimen by Culture"
            }
          ]
        },
        "status": "final",
        "subject": {
          "reference": "Patient/mii-exa-test-data-patient-1"
        },
        "encounter": {
          "reference": "Encounter/mii-exa-test-data-patient-1-encounter-1"
        },
        "effectiveDateTime": "2024-02-16T16:15:00+01:00",
        "issued": "2024-02-16T16:15:00+01:00",
        "valueCodeableConcept": {
          "coding": [
            {
              "code": "260373001",
              "system": "http://snomed.info/sct",
              "version": "http://snomed.info/sct/900000000000207008/version/20230731",
              "display": "Detected (qualifier value)"
            }
          ]
        },
        "method": {
          "coding": [
            {
              "code": "61594008",
              "system": "http://snomed.info/sct",
              "version": "http://snomed.info/sct/900000000000207008/version/20230731",
              "display": "Microbial culture (procedure)"
            }
          ]
        },
        "specimen": {
          "reference": "Specimen/mii-exa-test-data-patient-1-specimen-2"
        }
      }
    },
    {
      "request": {
        "method": "POST",
        "url": "Observation"
      },
      "fullUrl": "https://www.medizininformatik-initiative.de/Observation/mii-exa-test-data-patient-1-mikrobio-keimzahl-1",
      "resource": {
        "resourceType": "Observation",
        "id": "mii-exa-test-data-patient-1-mikrobio-keimzahl-1",
        "meta": {
          "profile": [
            "https://www.medizininformatik-initiative.de/fhir/modul-mikrobio/StructureDefinition/mii-pr-mikrobio-keimzahl"
          ]
        },
        "identifier": [
          {
            "assigner": {
              "identifier": {
                "system": "https://www.medizininformatik-initiative.de/fhir/core/CodeSystem/core-location-identifier",
                "value": "Charité"
              }
            },
            "type": {
              "coding": [
                {
                  "system": "http://terminology.hl7.org/CodeSystem/v2-0203",
                  "code": "OBI"
                }
              ]
            },
            "system": "https://www.charite.de/fhir/sid/lab-results",
            "value": "MiBiKMZ_000001"
          }
        ],
        "category": [
          {
            "coding": [
              {
                "system": "http://loinc.org",
                "code": "26436-6",
                "display": "Laboratory studies (set)"
              },
              {
                "system": "http://terminology.hl7.org/CodeSystem/observation-category",
                "code": "laboratory",
                "display": "Laboratory"
              },
              {
                "system": "http://loinc.org",
                "code": "18725-2",
                "display": "Microbiology studies (set)"
              }
            ]
          }
        ],
        "valueQuantity": {
          "system": "http://unitsofmeasure.org",
          "value": 1000000,
          "code": "[CFU]/mL",
          "unit": "CFU/ml"
        },
        "status": "final",
        "code": {
          "coding": [
            {
              "code": "49223-1",
              "system": "http://loinc.org",
              "display": "Colony count [#/volume] in Unspecified specimen by Visual count"
            }
          ]
        },
        "subject": {
          "reference": "Patient/mii-exa-test-data-patient-1"
        },
        "effectiveDateTime": "2024-02-16T16:15:00+01:00",
        "specimen": {
          "reference": "Specimen/mii-exa-test-data-patient-1-specimen-2"
        }
      }
    },
    {
      "request": {
        "method": "POST",
        "url": "Observation"
      },
      "fullUrl": "https://www.medizininformatik-initiative.de/Observation/mii-exa-test-data-patient-1-mikrobio-empfindlichkeit-1",
      "resource": {
        "resourceType": "Observation",
        "id": "mii-exa-test-data-patient-1-mikrobio-empfindlichkeit-1",
        "meta": {
          "profile": [
            "https://www.medizininformatik-initiative.de/fhir/modul-mikrobio/StructureDefinition/mii-pr-mikrobio-empfindlichkeit"
          ]
        },
        "identifier": [
          {
            "assigner": {
              "identifier": {
                "system": "https://www.medizininformatik-initiative.de/fhir/core/CodeSystem/core-location-identifier",
                "value": "Charité"
              }
            },
            "type": {
              "coding": [
                {
                  "system": "http://terminology.hl7.org/CodeSystem/v2-0203",
                  "code": "OBI"
                }
              ]
            },
            "system": "https://www.charite.de/fhir/sid/lab-results",
            "value": "MiBiEKT_000001"
          }
        ],
        "category": [
          {
            "coding": [
              {
                "system": "http://terminology.hl7.org/CodeSystem/observation-category",
                "code": "laboratory",
                "display": "Laboratory"
              },
              {
                "system": "http://loinc.org",
                "code": "26436-6",
                "display": "Laboratory studies (set)"
              },
              {
                "system": "http://loinc.org",
                "code": "18725-2",
                "display": "Microbiology studies (set)"
              }
            ]
          }
        ],
        "interpretation": [
          {
            "coding": [
              {
                "code": "R",
                "system": "http://terminology.hl7.org/CodeSystem/v3-ObservationInterpretation",
                "version": "2018-08-12",
                "display": "Resistant"
              }
            ]
          }
        ],
        "status": "final",
        "code": {
          "coding": [
            {
              "code": "18868-0",
              "system": "http://loinc.org",
              "display": "Aztreonam [Susceptibility]"
            }
          ]
        },
        "subject": {
          "reference": "Patient/mii-exa-test-data-patient-1"
        },
        "effectiveDateTime": "2024-02-16T16:15:00+01:00",
        "valueQuantity": {
          "value": 32,
          "code": "mg/L",
          "system": "http://unitsofmeasure.org",
          "unit": "mg/L"
        },
        "specimen": {
          "reference": "Specimen/mii-exa-test-data-patient-1-specimen-2"
        }
      }
    },
    {
      "request": {
        "method": "POST",
        "url": "Observation"
      },
      "fullUrl": "https://www.medizininformatik-initiative.de/Observation/mii-exa-test-data-patient-1-mikrobio-mikroskopie-1",
      "resource": {
        "resourceType": "Observation",
        "id": "mii-exa-test-data-patient-1-mikrobio-mikroskopie-1",
        "meta": {
          "profile": [
            "https://www.medizininformatik-initiative.de/fhir/modul-mikrobio/StructureDefinition/mii-pr-mikrobio-mikroskopie"
          ]
        },
        "identifier": [
          {
            "assigner": {
              "identifier": {
                "system": "https://www.medizininformatik-initiative.de/fhir/core/CodeSystem/core-location-identifier",
                "value": "Charité"
              }
            },
            "type": {
              "coding": [
                {
                  "system": "http://terminology.hl7.org/CodeSystem/v2-0203",
                  "code": "OBI"
                }
              ]
            },
            "system": "https://www.charite.de/fhir/sid/lab-results",
            "value": "MiBiMK_000001"
          }
        ],
        "category": [
          {
            "coding": [
              {
                "system": "http://terminology.hl7.org/CodeSystem/observation-category",
                "code": "laboratory",
                "display": "Laboratory"
              },
              {
                "system": "http://loinc.org",
                "code": "26436-6",
                "display": "Laboratory studies (set)"
              },
              {
                "system": "http://loinc.org",
                "code": "18725-2",
                "display": "Microbiology studies"
              }
            ]
          }
        ],
        "component": [
          {
            "code": {
              "coding": [
                {
                  "system": "http://loinc.org",
                  "code": "89248-9",
                  "display": "Microorganism identified event index case"
                }
              ]
            },
            "valueCodeableConcept": {
              "coding": [
                {
                  "code": "52499004",
                  "system": "http://snomed.info/sct",
                  "version": "http://snomed.info/sct/900000000000207008/version/20230731",
                  "display": "Pseudomonas aeruginosa (organism)"
                }
              ]
            }
          }
        ],
        "code": {
          "coding": [
            {
              "system": "http://snomed.info/sct",
              "code": "117259009",
              "version": "http://snomed.info/sct/900000000000207008/version/20230731",
              "display": "Microscopy (procedure)"
            }
          ]
        },
        "status": "final",
        "subject": {
          "reference": "Patient/mii-exa-test-data-patient-1"
        },
        "effectiveDateTime": "2024-02-16T16:15:00+01:00",
        "valueCodeableConcept": {
          "coding": [
            {
              "code": "260373001",
              "system": "http://snomed.info/sct",
              "version": "http://snomed.info/sct/900000000000207008/version/20230731",
              "display": "Detected (qualifier value)"
            }
          ]
        },
        "method": {
          "coding": [
            {
              "code": "67047002",
              "system": "http://snomed.info/sct",
              "version": "http://snomed.info/sct/900000000000207008/version/20230731",
              "display": "Microbial wet smear (procedure)"
            }
          ]
        },
        "specimen": {
          "reference": "Specimen/mii-exa-test-data-patient-1-specimen-2"
        }
      }
    },
    {
      "request": {
        "method": "POST",
        "url": "Observation"
      },
      "fullUrl": "https://www.medizininformatik-initiative.de/Observation/mii-exa-test-data-patient-1-mikrobio-molekulare-diagnostik-1",
      "resource": {
        "resourceType": "Observation",
        "id": "mii-exa-test-data-patient-1-mikrobio-molekulare-diagnostik-1",
        "meta": {
          "profile": [
            "https://www.medizininformatik-initiative.de/fhir/modul-mikrobio/StructureDefinition/mii-pr-mikrobio-molekulare-diagnostik"
          ]
        },
        "identifier": [
          {
            "assigner": {
              "identifier": {
                "system": "https://www.medizininformatik-initiative.de/fhir/core/CodeSystem/core-location-identifier",
                "value": "Charité"
              }
            },
            "type": {
              "coding": [
                {
                  "system": "http://terminology.hl7.org/CodeSystem/v2-0203",
                  "code": "OBI"
                }
              ]
            },
            "system": "https://www.charite.de/fhir/sid/lab-results",
            "value": "MiBiMKD_000001"
          }
        ],
        "category": [
          {
            "coding": [
              {
                "system": "http://terminology.hl7.org/CodeSystem/observation-category",
                "code": "laboratory",
                "display": "Laboratory"
              },
              {
                "system": "http://loinc.org",
                "code": "26436-6",
                "display": "Laboratory studies (set)"
              },
              {
                "system": "http://loinc.org",
                "code": "18725-2",
                "display": "Microbiology studies"
              }
            ]
          }
        ],
        "component": [
          {
            "code": {
              "coding": [
                {
                  "system": "http://loinc.org",
                  "code": "89248-9"
                }
              ]
            },
            "valueCodeableConcept": {
              "coding": [
                {
                  "code": "840533007",
                  "system": "http://snomed.info/sct",
                  "version": "http://snomed.info/sct/900000000000207008/version/20230731",
                  "display": "Severe acute respiratory syndrome coronavirus 2 (organism)"
                }
              ]
            }
          },
          {
            "valueQuantity": {
              "unit": "{Ct_value}",
              "value": 30
            },
            "code": {
              "coding": [
                {
                  "system": "http://snomed.info/sct",
                  "code": "1268647006",
                  "version": "http://snomed.info/sct/900000000000207008/version/20230731"
                }
              ]
            }
          }
        ],
        "code": {
          "coding": [
            {
              "system": "http://loinc.org",
              "code": "92253-4",
              "display": "Microorganism identified in Isolate or Specimen by Molecular genetics method"
            }
          ]
        },
        "status": "final",
        "subject": {
          "reference": "Patient/mii-exa-test-data-patient-1"
        },
        "effectiveDateTime": "2024-02-16T16:15:00+01:00",
        "valueCodeableConcept": {
          "coding": [
            {
              "code": "10828004",
              "system": "http://snomed.info/sct",
              "version": "http://snomed.info/sct/900000000000207008/version/20230731",
              "display": "Positive"
            }
          ]
        },
        "specimen": {
          "reference": "Specimen/mii-exa-test-data-patient-1-specimen-2"
        }
      }
    },
    {
      "request": {
        "method": "POST",
        "url": "Observation"
      },
      "fullUrl": "https://www.medizininformatik-initiative.de/Observation/mii-exa-test-data-patient-1-mikrobio-serologie-immunologie-1",
      "resource": {
        "resourceType": "Observation",
        "id": "mii-exa-test-data-patient-1-mikrobio-serologie-immunologie-1",
        "meta": {
          "profile": [
            "https://www.medizininformatik-initiative.de/fhir/modul-mikrobio/StructureDefinition/mii-pr-mikrobio-serologie-immunologie"
          ]
        },
        "identifier": [
          {
            "assigner": {
              "identifier": {
                "system": "https://www.medizininformatik-initiative.de/fhir/core/CodeSystem/core-location-identifier",
                "value": "Charité"
              }
            },
            "type": {
              "coding": [
                {
                  "system": "http://terminology.hl7.org/CodeSystem/v2-0203",
                  "code": "OBI"
                }
              ]
            },
            "system": "https://www.charite.de/fhir/sid/lab-results",
            "value": "MiBiSIT_000001"
          }
        ],
        "category": [
          {
            "coding": [
              {
                "system": "http://terminology.hl7.org/CodeSystem/observation-category",
                "code": "laboratory",
                "display": "Laboratory"
              },
              {
                "system": "http://loinc.org",
                "code": "26436-6",
                "display": "Laboratory studies (set)"
              },
              {
                "system": "http://loinc.org",
                "code": "18725-2",
                "display": "Microbiology studies"
              }
            ]
          }
        ],
        "code": {
          "coding": [
            {
              "system": "http://loinc.org",
              "code": "50697-2",
              "display": "Influenza virus A Ag [Identifier] in Isolate"
            },
            {
              "code": "252318005",
              "system": "http://snomed.info/sct",
              "version": "http://snomed.info/sct/900000000000207008/version/20230731"
            }
          ]
        },
        "status": "final",
        "subject": {
          "reference": "Patient/mii-exa-test-data-patient-1"
        },
        "effectiveDateTime": "2024-02-16T16:15:00+01:00",
        "valueCodeableConcept": {
          "coding": [
            {
              "code": "10828004",
              "system": "http://snomed.info/sct",
              "version": "http://snomed.info/sct/900000000000207008/version/20230731",
              "display": "Positive"
            }
          ]
        },
        "specimen": {
          "reference": "Specimen/mii-exa-test-data-patient-1-specimen-2"
        }
      }
    },
    {
      "request": {
        "method": "POST",
        "url": "Observation"
      },
      "fullUrl": "https://www.medizininformatik-initiative.de/Observation/mii-exa-test-data-patient-1-mikrobio-mre-klasse-1",
      "resource": {
        "resourceType": "Observation",
        "id": "mii-exa-test-data-patient-1-mikrobio-mre-klasse-1",
        "meta": {
          "profile": [
            "https://www.medizininformatik-initiative.de/fhir/modul-mikrobio/StructureDefinition/mii-pr-mikrobio-mre-klasse"
          ]
        },
        "identifier": [
          {
            "assigner": {
              "identifier": {
                "system": "https://www.medizininformatik-initiative.de/fhir/core/CodeSystem/core-location-identifier",
                "value": "Charité"
              }
            },
            "type": {
              "coding": [
                {
                  "system": "http://terminology.hl7.org/CodeSystem/v2-0203",
                  "code": "OBI"
                }
              ]
            },
            "system": "https://www.charite.de/fhir/sid/lab-results",
            "value": "MiBiMRE_000001"
          }
        ],
        "category": [
          {
            "coding": [
              {
                "system": "http://terminology.hl7.org/CodeSystem/observation-category",
                "code": "laboratory",
                "display": "Laboratory"
              },
              {
                "system": "http://loinc.org",
                "code": "26436-6",
                "display": "Laboratory studies (set)"
              },
              {
                "system": "http://loinc.org",
                "code": "18725-2",
                "display": "Microbiology studies"
              }
            ]
          }
        ],
        "code": {
          "coding": [
            {
              "system": "http://snomed.info/sct",
              "code": "1285113001",
              "version": "http://snomed.info/sct/900000000000207008/version/20230731",
              "display": "Type of antimicrobial resistant organism (observable entity)"
            }
          ]
        },
        "status": "final",
        "subject": {
          "reference": "Patient/mii-exa-test-data-patient-1"
        },
        "effectiveDateTime": "2024-02-16T16:15:00+01:00",
        "valueCodeableConcept": {
          "coding": [
            {
              "code": "710332005",
              "system": "http://snomed.info/sct",
              "version": "http://snomed.info/sct/900000000000207008/version/20230731",
              "display": "Multidrug resistant Pseudomonas aeruginosa (organism)"
            }
          ]
        },
        "specimen": {
          "reference": "Specimen/mii-exa-test-data-patient-1-specimen-2"
        }
      }
    },
    {
      "request": {
        "method": "POST",
        "url": "ServiceRequest"
      },
      "fullUrl": "https://www.medizininformatik-initiative.de/ServiceRequest/mii-exa-test-data-patient-1-patho-request-1",
      "resource": {
        "resourceType": "ServiceRequest",
        "id": "mii-exa-test-data-patient-1-patho-request-1",
        "meta": {
          "profile": [
            "https://www.medizininformatik-initiative.de/fhir/ext/modul-patho/StructureDefinition/mii-pr-patho-service-request"
          ]
        },
        "identifier": [
          {
            "type": {
              "coding": [
                {
                  "code": "PLAC",
                  "system": "http://terminology.hl7.org/CodeSystem/v2-0203"
                }
              ]
            },
            "value": "KHXX_ENDO_18.123451",
            "system": "https://www.charite.de/fhir/sid/untersuchungsauftrag"
          },
          {
            "type": {
              "coding": [
                {
                  "code": "FILL",
                  "system": "http://terminology.hl7.org/CodeSystem/v2-0203"
                }
              ]
            },
            "value": "E18-321654",
            "system": "https://www.charite.de/fhir/sid/untersuchungsauftrag"
          }
        ],
        "reasonCode": [
          {
            "coding": [
              {
                "code": "266987004",
                "system": "http://snomed.info/sct",
                "version": "http://snomed.info/sct/900000000000207008/version/20230731",
                "display": "History of malignant neoplasm (situation)"
              }
            ]
          }
        ],
        "supportingInfo": [
          {
            "reference": "List/mii-exa-test-data-patient-1-patho-history-of-present-illness"
          },
          {
            "reference": "List/mii-exa-test-data-patient-1-patho-active-problems-list"
          }
        ],
        "category": [
          {
            "coding": [
              {
                "system": "http://snomed.info/sct",
                "code": "726007",
                "display": "Pathology consultation, comprehensive, records and specimen with report (procedure)"
              }
            ]
          }
        ],
        "status": "completed",
        "intent": "order",
        "subject": {
          "reference": "Patient/mii-exa-test-data-patient-1"
        },
        "encounter": {
          "reference": "Encounter/mii-exa-test-data-patient-1-encounter-1"
        },
        "requester": {
          "reference": "Organization/mii-exa-test-data-organization-charite"
        },
        "code": {
          "coding": [
            {
              "code": "44977009",
              "system": "http://snomed.info/sct",
              "version": "http://snomed.info/sct/900000000000207008/version/20230731",
              "display": "Cytopathology procedure, cell block preparation (procedure)"
            }
          ]
        }
      }
    },
    {
      "request": {
        "method": "POST",
        "url": "Condition"
      },
      "fullUrl": "https://www.medizininformatik-initiative.de/Condition/mii-exa-test-data-patient-1-patho-problem-list-item-1",
      "resource": {
        "resourceType": "Condition",
        "id": "mii-exa-test-data-patient-1-patho-problem-list-item-1",
        "meta": {
          "profile": [
            "https://www.medizininformatik-initiative.de/fhir/ext/modul-patho/StructureDefinition/mii-pr-patho-problem-list-item"
          ]
        },
        "category": [
          {
            "coding": [
              {
                "system": "http://terminology.hl7.org/CodeSystem/condition-category",
                "code": "problem-list-item"
              }
            ]
          }
        ],
        "code": {
          "coding": [
            {
              "code": "363346000",
              "system": "http://snomed.info/sct",
              "version": "http://snomed.info/sct/900000000000207008/version/20230731",
              "display": "Malignant neoplastic disease (disorder)"
            }
          ]
        },
        "subject": {
          "reference": "Patient/mii-exa-test-data-patient-1"
        }
      }
    },
    {
      "request": {
        "method": "POST",
        "url": "Condition"
      },
      "fullUrl": "https://www.medizininformatik-initiative.de/Condition/mii-exa-test-data-patient-1-patho-problem-list-item-2",
      "resource": {
        "resourceType": "Condition",
        "id": "mii-exa-test-data-patient-1-patho-problem-list-item-2",
        "meta": {
          "profile": [
            "https://www.medizininformatik-initiative.de/fhir/ext/modul-patho/StructureDefinition/mii-pr-patho-problem-list-item"
          ]
        },
        "category": [
          {
            "coding": [
              {
                "system": "http://terminology.hl7.org/CodeSystem/condition-category",
                "code": "problem-list-item"
              }
            ]
          }
        ],
        "code": {
          "coding": [
            {
              "code": "266987004",
              "system": "http://snomed.info/sct",
              "version": "http://snomed.info/sct/900000000000207008/version/20230731",
              "display": "History of malignant neoplasm (situation)"
            }
          ]
        },
        "subject": {
          "reference": "Patient/mii-exa-test-data-patient-1"
        }
      }
    },
    {
      "request": {
        "method": "POST",
        "url": "List"
      },
      "fullUrl": "https://www.medizininformatik-initiative.de/List/mii-exa-test-data-patient-1-patho-history-of-present-illness",
      "resource": {
        "resourceType": "List",
        "id": "mii-exa-test-data-patient-1-patho-history-of-present-illness",
        "meta": {
          "profile": [
            "https://www.medizininformatik-initiative.de/fhir/ext/modul-patho/StructureDefinition/mii-pr-patho-history-of-present-illness"
          ]
        },
        "entry": [
          {
            "item": {
              "reference": "Condition/mii-exa-test-data-patient-1-patho-problem-list-item-2"
            }
          }
        ],
        "mode": "snapshot",
        "code": {
          "coding": [
            {
              "system": "http://loinc.org",
              "code": "8684-3",
              "display": "History of Present illness"
            }
          ]
        },
        "status": "current",
        "subject": {
          "reference": "Patient/mii-exa-test-data-patient-1"
        }
      }
    },
    {
      "request": {
        "method": "POST",
        "url": "List"
      },
      "fullUrl": "https://www.medizininformatik-initiative.de/List/mii-exa-test-data-patient-1-patho-active-problems-list",
      "resource": {
        "resourceType": "List",
        "id": "mii-exa-test-data-patient-1-patho-active-problems-list",
        "meta": {
          "profile": [
            "https://www.medizininformatik-initiative.de/fhir/ext/modul-patho/StructureDefinition/mii-pr-patho-active-problems-list"
          ]
        },
        "entry": [
          {
            "item": {
              "reference": "Condition/mii-exa-test-data-patient-1-patho-problem-list-item-1"
            }
          }
        ],
        "mode": "snapshot",
        "code": {
          "coding": [
            {
              "system": "http://loinc.org",
              "code": "11450-4",
              "display": "Problem list - Reported"
            }
          ]
        },
        "status": "current",
        "subject": {
          "reference": "Patient/mii-exa-test-data-patient-1"
        }
      }
    },
    {
      "request": {
        "method": "POST",
        "url": "DiagnosticReport"
      },
      "fullUrl": "https://www.medizininformatik-initiative.de/DiagnosticReport/mii-exa-test-data-patient-1-patho-report-1",
      "resource": {
        "resourceType": "DiagnosticReport",
        "id": "mii-exa-test-data-patient-1-patho-report-1",
        "meta": {
          "profile": [
            "https://www.medizininformatik-initiative.de/fhir/ext/modul-patho/StructureDefinition/mii-pr-patho-report"
          ]
        },
        "identifier": [
          {
            "extension": [
              {
                "url": "http://hl7.org/fhir/StructureDefinition/narrativeLink",
                "valueUrl": "#befund-eingangsnummer"
              }
            ],
            "type": {
              "coding": [
                {
                  "system": "http://terminology.hl7.org/CodeSystem/v2-0203",
                  "code": "ACSN",
                  "display": "Accession ID"
                }
              ]
            },
            "value": "E21.12345",
            "system": "https://www.charite.de/fhir/sid/patho/reports"
          }
        ],
        "basedOn": [
          {
            "reference": "ServiceRequest/mii-exa-test-data-patient-1-patho-request-1"
          }
        ],
        "code": {
          "coding": [
            {
              "system": "http://loinc.org",
              "code": "60568-3",
              "display": "Pathology Synoptic report"
            }
          ]
        },
        "performer": [
          {
            "reference": "Organization/mii-exa-test-data-organization-charite"
          }
        ],
        "specimen": [
          {
            "reference": "Specimen/mii-exa-test-data-patient-1-patho-prostate-tru-cut-biopsy-sample"
          }
        ],
        "result": [
          {
            "reference": "Observation/mii-exa-test-data-patient-1-patho-macro-grouper-b"
          },
          {
            "reference": "Observation/mii-exa-test-data-patient-1-patho-micro-grouper-a"
          },
          {
            "reference": "Observation/mii-exa-test-data-patient-1-patho-diagnostic-conclusion-grouper"
          }
        ],
        "imagingStudy": [
          {
            "reference": "ImagingStudy/mii-exa-test-data-patient-1-patho-imagingstudy-1"
          }
        ],
        "conclusionCode": [
          {
            "coding": [
              {
                "code": "399490008",
                "system": "http://snomed.info/sct",
                "version": "http://snomed.info/sct/900000000000207008/version/20230731"
              }
            ]
          }
        ],
        "media": [
          {
            "link": {
              "reference": "Media/mii-exa-test-data-patient-1-patho-attached-image"
            },
            "comment": "HE-Schnitt einer Prostatastanze, infiltriert durch Karzinomverbände, fotodokumentiert"
          }
        ],
        "status": "final",
        "subject": {
          "reference": "Patient/mii-exa-test-data-patient-1"
        },
        "conclusion": "Mäßig differenziertes azinäres Adenokarzinom der Prostata, ISUP-Gradgruppe 2",
        "effectiveDateTime": "2021-06-01"
      }
    },
    {
      "request": {
        "method": "POST",
        "url": "Composition"
      },
      "fullUrl": "https://www.medizininformatik-initiative.de/Composition/mii-exa-test-data-patient-1-patho-composition",
      "resource": {
        "resourceType": "Composition",
        "id": "mii-exa-test-data-patient-1-patho-composition",
        "meta": {
          "profile": [
            "https://www.medizininformatik-initiative.de/fhir/ext/modul-patho/StructureDefinition/mii-pr-patho-composition"
          ]
        },
        "text": {
          "status": "extensions",
          "div": "<div xmlns=\"http://www.w3.org/1999/xhtml\"><div id=\"befund-titel\"><b>Pathologisch-anatomisch Begutachtung</b></div><table><tr id=\"befund-identifikator\"><td>id</td><td>E12345_21.1</td></tr><tr id=\"befund-eingangsnummer\"><td>Eingangsnummer</td><td>E12345_21</td></tr><tr id=\"befund-status\"><td>Status</td><td>final</td></tr><tr id=\"befund-patient\"><td>Patient</td><td>Patient/mii-exa-test-data-patient-1</td></tr><tr id=\"befund-effective\"><td>Effective</td><td>2024-02-16</td></tr><tr id=\"befund-issued\"><td>Issued</td><td>2024-02-16</td></tr></table></div>"
        },
        "extension": [
          {
            "url": "http://hl7.org/fhir/StructureDefinition/composition-clinicaldocument-versionNumber",
            "valueString": "1"
          }
        ],
        "identifier": {
          "extension": [
            {
              "url": "http://hl7.org/fhir/StructureDefinition/narrativeLink",
              "valueUrl": "#befund-eingangsnummer"
            }
          ],
          "value": "E21.12345",
          "system": "https://www.charite.de/fhir/sid/patho/reports",
          "type": {
            "coding": [
              {
                "code": "ACSN",
                "system": "http://terminology.hl7.org/CodeSystem/v2-0203",
                "display": "Accession ID"
              }
            ]
          }
        },
        "author": [
          {
            "reference": "Organization/mii-exa-test-data-organization-charite",
            "display": "Charité"
          }
        ],
        "attester": [
          {
            "mode": "legal",
            "party": {
              "reference": "Organization/mii-exa-test-data-organization-charite"
            }
          }
        ],
        "relatesTo": [
          {
            "targetReference": {
              "_reference": {
                "extension": [
                  {
                    "url": "http://hl7.org/fhir/StructureDefinition/data-absent-reason",
                    "valueCode": "masked"
                  }
                ]
              }
            },
            "code": "appends"
          }
        ],
        "event": [
          {
            "period": {
              "start": "2024-02-16",
              "end": "2024-02-16"
            }
          }
        ],
        "section": [
          {
            "text": {
              "status": "additional",
              "div": "<div xmlns=\"http://www.w3.org/1999/xhtml\"><div id=\"macro-a-title\"><b>Makroskopie A</b></div><table><tr id=\"macro-a-biosy-site\"><td id=\"macro-a-biosy-site-key\">Entnahmeort lt. klin. Angabe</td><td id=\"macro-a-biosy-site-value\">Prostataseitenlappen rechts, lateral</td></tr><tr id=\"macro-a-tissue-length\"><td id=\"macro-a-tissue-length-key\">Stanzzylinderlänge</td><td id=\"macro-a-tissue-length-value\">1,2 cm</td></tr></table></div>"
            },
            "entry": [
              {
                "reference": "DiagnosticReport/mii-exa-test-data-patient-1-patho-report-1"
              }
            ],
            "code": {
              "coding": [
                {
                  "system": "http://loinc.org",
                  "code": "60567-5",
                  "display": "Comprehensive pathology report panel"
                }
              ]
            },
            "title": "Pathology Diagnostic Report"
          }
        ],
        "status": "final",
        "type": {
          "coding": [
            {
              "system": "http://loinc.org",
              "code": "11526-1",
              "display": "Pathology study"
            }
          ]
        },
        "subject": {
          "reference": "Patient/mii-exa-test-data-patient-1"
        },
        "encounter": {
          "reference": "Encounter/mii-exa-test-data-patient-1-encounter-1"
        },
        "date": "2024-02-16",
        "title": "Pathologie Befundbericht",
        "custodian": {
          "reference": "Organization/mii-exa-test-data-organization-charite"
        }
      }
    },
    {
      "request": {
        "method": "POST",
        "url": "Observation"
      },
      "fullUrl": "https://www.medizininformatik-initiative.de/Observation/mii-exa-test-data-patient-1-patho-biopsy-site-a",
      "resource": {
        "resourceType": "Observation",
        "id": "mii-exa-test-data-patient-1-patho-biopsy-site-a",
        "meta": {
          "profile": [
            "https://www.medizininformatik-initiative.de/fhir/ext/modul-patho/StructureDefinition/mii-pr-patho-finding"
          ]
        },
        "category": [
          {
            "coding": [
              {
                "system": "http://terminology.hl7.org/CodeSystem/observation-category",
                "code": "laboratory"
              }
            ]
          },
          {
            "coding": [
              {
                "code": "22634-0",
                "system": "http://loinc.org"
              }
            ]
          }
        ],
        "code": {
          "coding": [
            {
              "code": "94738-2",
              "system": "http://loinc.org",
              "display": "Biopsy site Patient"
            }
          ],
          "extension": [
            {
              "url": "http://hl7.org/fhir/StructureDefinition/narrativeLink",
              "valueUrl": "#macro-a-biopsy-site-key"
            }
          ]
        },
        "valueCodeableConcept": {
          "extension": [
            {
              "url": "http://hl7.org/fhir/StructureDefinition/narrativeLink",
              "valueUrl": "#macro-a-biopsy-site-value"
            }
          ],
          "coding": [
            {
              "code": "716917000",
              "system": "http://snomed.info/sct",
              "version": "http://snomed.info/sct/900000000000207008/version/20230731",
              "display": "Structure of lateral middle regional part of peripheral zone of right half prostate (body structure)"
            }
          ]
        },
        "derivedFrom": [
          {
            "reference": "Media/mii-exa-test-data-patient-1-patho-attached-image"
          }
        ],
        "status": "final",
        "specimen": {
          "reference": "Specimen/mii-exa-test-data-patient-1-patho-he-stained-slide-prostate"
        }
      }
    },
    {
      "request": {
        "method": "POST",
        "url": "Observation"
      },
      "fullUrl": "https://www.medizininformatik-initiative.de/Observation/mii-exa-test-data-patient-1-patho-tissue-length-a",
      "resource": {
        "resourceType": "Observation",
        "id": "mii-exa-test-data-patient-1-patho-tissue-length-a",
        "meta": {
          "profile": [
            "https://www.medizininformatik-initiative.de/fhir/ext/modul-patho/StructureDefinition/mii-pr-patho-finding"
          ]
        },
        "category": [
          {
            "coding": [
              {
                "system": "http://terminology.hl7.org/CodeSystem/observation-category",
                "code": "laboratory"
              }
            ]
          },
          {
            "coding": [
              {
                "code": "22634-0",
                "system": "http://loinc.org"
              }
            ]
          }
        ],
        "code": {
          "coding": [
            {
              "code": "44619-5",
              "system": "http://loinc.org",
              "display": "Length of tissue core(s)"
            }
          ],
          "extension": [
            {
              "url": "http://hl7.org/fhir/StructureDefinition/narrativeLink",
              "valueUrl": "#macro-a-tissue-length-key"
            }
          ]
        },
        "valueQuantity": {
          "extension": [
            {
              "url": "http://hl7.org/fhir/StructureDefinition/narrativeLink",
              "valueUrl": "#macro-a-tissue-length-value"
            }
          ],
          "value": 1.2,
          "unit": "cm",
          "system": "http://unitsofmeasure.org",
          "code": "cm"
        },
        "derivedFrom": [
          {
            "reference": "Media/mii-exa-test-data-patient-1-patho-attached-image"
          }
        ],
        "status": "final",
        "specimen": {
          "reference": "Specimen/mii-exa-test-data-patient-1-patho-he-stained-slide-prostate"
        }
      }
    },
    {
      "request": {
        "method": "POST",
        "url": "Observation"
      },
      "fullUrl": "https://www.medizininformatik-initiative.de/Observation/mii-exa-test-data-patient-1-patho-biopsy-site-b",
      "resource": {
        "resourceType": "Observation",
        "id": "mii-exa-test-data-patient-1-patho-biopsy-site-b",
        "meta": {
          "profile": [
            "https://www.medizininformatik-initiative.de/fhir/ext/modul-patho/StructureDefinition/mii-pr-patho-finding"
          ]
        },
        "category": [
          {
            "coding": [
              {
                "system": "http://terminology.hl7.org/CodeSystem/observation-category",
                "code": "laboratory"
              }
            ]
          },
          {
            "coding": [
              {
                "code": "22634-0",
                "system": "http://loinc.org"
              }
            ]
          }
        ],
        "code": {
          "coding": [
            {
              "code": "94738-2",
              "system": "http://loinc.org",
              "display": "Biopsy site Patient"
            }
          ]
        },
        "derivedFrom": [
          {
            "reference": "Media/mii-exa-test-data-patient-1-patho-attached-image"
          }
        ],
        "status": "final",
        "valueCodeableConcept": {
          "coding": [
            {
              "code": "716934008",
              "system": "http://snomed.info/sct",
              "version": "http://snomed.info/sct/900000000000207008/version/20230731",
              "display": "Structure of apical part of peripheral zone of right half prostate (body structure)"
            }
          ]
        }
      }
    },
    {
      "request": {
        "method": "POST",
        "url": "Observation"
      },
      "fullUrl": "https://www.medizininformatik-initiative.de/Observation/mii-exa-test-data-patient-1-patho-tissue-length-b",
      "resource": {
        "resourceType": "Observation",
        "id": "mii-exa-test-data-patient-1-patho-tissue-length-b",
        "meta": {
          "profile": [
            "https://www.medizininformatik-initiative.de/fhir/ext/modul-patho/StructureDefinition/mii-pr-patho-finding"
          ]
        },
        "category": [
          {
            "coding": [
              {
                "system": "http://terminology.hl7.org/CodeSystem/observation-category",
                "code": "laboratory"
              }
            ]
          },
          {
            "coding": [
              {
                "code": "22634-0",
                "system": "http://loinc.org"
              }
            ]
          }
        ],
        "code": {
          "coding": [
            {
              "code": "44619-5",
              "system": "http://loinc.org",
              "display": "Length of tissue core(s)"
            }
          ]
        },
        "valueQuantity": {
          "value": 1.5,
          "unit": "cm",
          "system": "http://unitsofmeasure.org",
          "code": "cm"
        },
        "derivedFrom": [
          {
            "reference": "Media/mii-exa-test-data-patient-1-patho-attached-image"
          }
        ],
        "status": "final"
      }
    },
    {
      "request": {
        "method": "POST",
        "url": "Observation"
      },
      "fullUrl": "https://www.medizininformatik-initiative.de/Observation/mii-exa-test-data-patient-1-patho-histologic-type-a",
      "resource": {
        "resourceType": "Observation",
        "id": "mii-exa-test-data-patient-1-patho-histologic-type-a",
        "meta": {
          "profile": [
            "https://www.medizininformatik-initiative.de/fhir/ext/modul-patho/StructureDefinition/mii-pr-patho-finding"
          ]
        },
        "category": [
          {
            "coding": [
              {
                "system": "http://terminology.hl7.org/CodeSystem/observation-category",
                "code": "laboratory"
              }
            ]
          },
          {
            "coding": [
              {
                "code": "22635-7",
                "system": "http://loinc.org"
              }
            ]
          }
        ],
        "status": "final",
        "code": {
          "coding": [
            {
              "code": "371441004",
              "system": "http://snomed.info/sct",
              "version": "http://snomed.info/sct/900000000000207008/version/20230731",
              "display": "Histologic type"
            }
          ]
        },
        "valueCodeableConcept": {
          "coding": [
            {
              "code": "45410002",
              "system": "http://snomed.info/sct",
              "version": "http://snomed.info/sct/900000000000207008/version/20230731",
              "display": "Acinar adenocarcinoma"
            }
          ]
        },
        "specimen": {
          "reference": "Specimen/mii-exa-test-data-patient-1-patho-he-stained-slide-prostate"
        }
      }
    },
    {
      "request": {
        "method": "POST",
        "url": "Observation"
      },
      "fullUrl": "https://www.medizininformatik-initiative.de/Observation/mii-exa-test-data-patient-1-patho-gleason-pattern-a",
      "resource": {
        "resourceType": "Observation",
        "id": "mii-exa-test-data-patient-1-patho-gleason-pattern-a",
        "meta": {
          "profile": [
            "https://www.medizininformatik-initiative.de/fhir/ext/modul-patho/StructureDefinition/mii-pr-patho-finding"
          ]
        },
        "category": [
          {
            "coding": [
              {
                "system": "http://terminology.hl7.org/CodeSystem/observation-category",
                "code": "laboratory"
              }
            ]
          },
          {
            "coding": [
              {
                "code": "22635-7",
                "system": "http://loinc.org"
              }
            ]
          }
        ],
        "status": "final",
        "code": {
          "coding": [
            {
              "code": "44641-9",
              "system": "http://loinc.org",
              "display": "Gleason pattern.primary in prostate tumor"
            }
          ]
        },
        "valueCodeableConcept": {
          "coding": [
            {
              "code": "369772003",
              "system": "http://snomed.info/sct",
              "version": "http://snomed.info/sct/900000000000207008/version/20230731",
              "display": "Gleason Pattern 3"
            }
          ]
        },
        "specimen": {
          "reference": "Specimen/mii-exa-test-data-patient-1-patho-he-stained-slide-prostate"
        }
      }
    },
    {
      "request": {
        "method": "POST",
        "url": "Observation"
      },
      "fullUrl": "https://www.medizininformatik-initiative.de/Observation/mii-exa-test-data-patient-1-patho-diagnostic-conclusion-1",
      "resource": {
        "resourceType": "Observation",
        "id": "mii-exa-test-data-patient-1-patho-diagnostic-conclusion-1",
        "meta": {
          "profile": [
            "https://www.medizininformatik-initiative.de/fhir/ext/modul-patho/StructureDefinition/mii-pr-patho-finding"
          ]
        },
        "category": [
          {
            "coding": [
              {
                "system": "http://terminology.hl7.org/CodeSystem/observation-category",
                "code": "laboratory"
              }
            ]
          },
          {
            "coding": [
              {
                "code": "22637-3",
                "system": "http://loinc.org"
              }
            ]
          }
        ],
        "status": "final",
        "code": {
          "coding": [
            {
              "code": "59847-4",
              "system": "http://loinc.org",
              "display": "Histology and Behavior ICD-O-3 Cancer"
            }
          ]
        },
        "valueCodeableConcept": {
          "coding": [
            {
              "code": "8140/3",
              "system": "http://terminology.hl7.org/CodeSystem/icd-o-3",
              "display": "Adenokarzinom (azinär)"
            }
          ]
        }
      }
    },
    {
      "request": {
        "method": "POST",
        "url": "Observation"
      },
      "fullUrl": "https://www.medizininformatik-initiative.de/Observation/mii-exa-test-data-patient-1-patho-diagnostic-conclusion-2",
      "resource": {
        "resourceType": "Observation",
        "id": "mii-exa-test-data-patient-1-patho-diagnostic-conclusion-2",
        "meta": {
          "profile": [
            "https://www.medizininformatik-initiative.de/fhir/ext/modul-patho/StructureDefinition/mii-pr-patho-finding"
          ]
        },
        "category": [
          {
            "coding": [
              {
                "system": "http://terminology.hl7.org/CodeSystem/observation-category",
                "code": "laboratory"
              }
            ]
          },
          {
            "coding": [
              {
                "code": "22637-3",
                "system": "http://loinc.org"
              }
            ]
          }
        ],
        "status": "final",
        "code": {
          "coding": [
            {
              "code": "35266-6",
              "system": "http://loinc.org",
              "display": "Gleason score in Specimen Qualitative"
            }
          ]
        },
        "valueCodeableConcept": {
          "coding": [
            {
              "code": "57403001",
              "system": "http://snomed.info/sct",
              "version": "http://snomed.info/sct/900000000000207008/version/20230731",
              "display": "Gleason grade score 7"
            }
          ]
        }
      }
    },
    {
      "request": {
        "method": "POST",
        "url": "Observation"
      },
      "fullUrl": "https://www.medizininformatik-initiative.de/Observation/mii-exa-test-data-patient-1-patho-diagnostic-conclusion-3",
      "resource": {
        "resourceType": "Observation",
        "id": "mii-exa-test-data-patient-1-patho-diagnostic-conclusion-3",
        "meta": {
          "profile": [
            "https://www.medizininformatik-initiative.de/fhir/ext/modul-patho/StructureDefinition/mii-pr-patho-finding"
          ]
        },
        "category": [
          {
            "coding": [
              {
                "system": "http://terminology.hl7.org/CodeSystem/observation-category",
                "code": "laboratory"
              }
            ]
          },
          {
            "coding": [
              {
                "code": "22637-3",
                "system": "http://loinc.org"
              }
            ]
          }
        ],
        "status": "final",
        "code": {
          "coding": [
            {
              "code": "94734-1",
              "system": "http://loinc.org",
              "display": "Prostate cancer grade group [Score] in Prostate tumor Qualitative"
            }
          ]
        },
        "valueCodeableConcept": {
          "coding": [
            {
              "code": "LA9630-0",
              "system": "http://loinc.org",
              "display": "Grade 2"
            }
          ]
        }
      }
    },
    {
      "request": {
        "method": "POST",
        "url": "Observation"
      },
      "fullUrl": "https://www.medizininformatik-initiative.de/Observation/mii-exa-test-data-patient-1-patho-macro-grouper-a",
      "resource": {
        "resourceType": "Observation",
        "id": "mii-exa-test-data-patient-1-patho-macro-grouper-a",
        "meta": {
          "profile": [
            "https://www.medizininformatik-initiative.de/fhir/ext/modul-patho/StructureDefinition/mii-pr-patho-macroscopic-grouper"
          ]
        },
        "category": [
          {
            "coding": [
              {
                "system": "http://terminology.hl7.org/CodeSystem/observation-category",
                "code": "laboratory"
              }
            ]
          }
        ],
        "code": {
          "coding": [
            {
              "system": "http://loinc.org",
              "code": "22634-0"
            }
          ]
        },
        "hasMember": [
          {
            "reference": "Observation/mii-exa-test-data-patient-1-patho-biopsy-site-a"
          },
          {
            "reference": "Observation/mii-exa-test-data-patient-1-patho-tissue-length-a"
          }
        ],
        "status": "final",
        "specimen": {
          "reference": "Specimen/mii-exa-test-data-patient-1-patho-he-stained-slide-prostate"
        }
      }
    },
    {
      "request": {
        "method": "POST",
        "url": "Observation"
      },
      "fullUrl": "https://www.medizininformatik-initiative.de/Observation/mii-exa-test-data-patient-1-patho-macro-grouper-b",
      "resource": {
        "resourceType": "Observation",
        "id": "mii-exa-test-data-patient-1-patho-macro-grouper-b",
        "meta": {
          "profile": [
            "https://www.medizininformatik-initiative.de/fhir/ext/modul-patho/StructureDefinition/mii-pr-patho-macroscopic-grouper"
          ]
        },
        "category": [
          {
            "coding": [
              {
                "system": "http://terminology.hl7.org/CodeSystem/observation-category",
                "code": "laboratory"
              }
            ]
          }
        ],
        "code": {
          "coding": [
            {
              "system": "http://loinc.org",
              "code": "22634-0"
            }
          ]
        },
        "hasMember": [
          {
            "reference": "Observation/mii-exa-test-data-patient-1-patho-biopsy-site-b"
          },
          {
            "reference": "Observation/mii-exa-test-data-patient-1-patho-tissue-length-b"
          }
        ],
        "status": "final",
        "valueString": "Specimen B: Prostataseitenlappen rechts, apikal 1.5cm"
      }
    },
    {
      "request": {
        "method": "POST",
        "url": "Observation"
      },
      "fullUrl": "https://www.medizininformatik-initiative.de/Observation/mii-exa-test-data-patient-1-patho-micro-grouper-a",
      "resource": {
        "resourceType": "Observation",
        "id": "mii-exa-test-data-patient-1-patho-micro-grouper-a",
        "meta": {
          "profile": [
            "https://www.medizininformatik-initiative.de/fhir/ext/modul-patho/StructureDefinition/mii-pr-patho-microscopic-grouper"
          ]
        },
        "category": [
          {
            "coding": [
              {
                "system": "http://terminology.hl7.org/CodeSystem/observation-category",
                "code": "laboratory"
              }
            ]
          }
        ],
        "code": {
          "coding": [
            {
              "system": "http://loinc.org",
              "code": "22635-7"
            }
          ]
        },
        "hasMember": [
          {
            "reference": "Observation/mii-exa-test-data-patient-1-patho-histologic-type-a"
          },
          {
            "reference": "Observation/mii-exa-test-data-patient-1-patho-gleason-pattern-a"
          }
        ],
        "status": "final",
        "valueString": "Specimen A: Prostatastanze mit herdförmiger kontinuierlicher Infiltration durch unscharf begrenzte Verbände eines kleintubulär wachse (Gleason-Muster 3), die sich zwischen ortständige Drüsen schieben und ca. 30% der Schnittfläche des Zylinders...",
        "specimen": {
          "reference": "Specimen/mii-exa-test-data-patient-1-patho-he-stained-slide-prostate"
        }
      }
    },
    {
      "request": {
        "method": "POST",
        "url": "Observation"
      },
      "fullUrl": "https://www.medizininformatik-initiative.de/Observation/mii-exa-test-data-patient-1-patho-diagnostic-conclusion-grouper",
      "resource": {
        "resourceType": "Observation",
        "id": "mii-exa-test-data-patient-1-patho-diagnostic-conclusion-grouper",
        "meta": {
          "profile": [
            "https://www.medizininformatik-initiative.de/fhir/ext/modul-patho/StructureDefinition/mii-pr-patho-diagnostic-conclusion-grouper"
          ]
        },
        "category": [
          {
            "coding": [
              {
                "system": "http://terminology.hl7.org/CodeSystem/observation-category",
                "code": "laboratory"
              }
            ]
          }
        ],
        "code": {
          "coding": [
            {
              "system": "http://loinc.org",
              "code": "22637-3"
            }
          ]
        },
        "derivedFrom": [
          {
            "reference": "Observation/mii-exa-test-data-patient-1-patho-macro-grouper-a"
          },
          {
            "reference": "Observation/mii-exa-test-data-patient-1-patho-macro-grouper-b"
          },
          {
            "reference": "Observation/mii-exa-test-data-patient-1-patho-micro-grouper-a"
          }
        ],
        "hasMember": [
          {
            "reference": "Observation/mii-exa-test-data-patient-1-patho-diagnostic-conclusion-1"
          },
          {
            "reference": "Observation/mii-exa-test-data-patient-1-patho-diagnostic-conclusion-2"
          },
          {
            "reference": "Observation/mii-exa-test-data-patient-1-patho-diagnostic-conclusion-3"
          }
        ],
        "status": "final"
      }
    },
    {
      "request": {
        "method": "POST",
        "url": "Media"
      },
      "fullUrl": "https://www.medizininformatik-initiative.de/Media/mii-exa-test-data-patient-1-patho-attached-image",
      "resource": {
        "resourceType": "Media",
        "id": "mii-exa-test-data-patient-1-patho-attached-image",
        "meta": {
          "profile": [
            "https://www.medizininformatik-initiative.de/fhir/ext/modul-patho/StructureDefinition/mii-pr-patho-attached-image"
          ]
        },
        "content": {
          "contentType": "image/png",
          "url": "https://www.charite.de/fhir/sid/patho/image"
        },
        "type": {
          "coding": [
            {
              "system": "http://terminology.hl7.org/CodeSystem/media-type",
              "code": "image"
            }
          ]
        },
        "status": "completed",
        "subject": {
          "reference": "Specimen/mii-exa-test-data-patient-1-patho-prostate-tru-cut-biopsy-sample"
        }
      }
    },
    {
      "request": {
        "method": "POST",
        "url": "Media"
      },
      "fullUrl": "https://www.medizininformatik-initiative.de/Media/mii-exa-test-data-patient-1-patho-attached-image-2",
      "resource": {
        "resourceType": "Media",
        "id": "mii-exa-test-data-patient-1-patho-attached-image-2",
        "meta": {
          "profile": [
            "https://www.medizininformatik-initiative.de/fhir/ext/modul-patho/StructureDefinition/mii-pr-patho-attached-image"
          ]
        },
        "partOf": [
          {
            "reference": "Media/mii-exa-test-data-patient-1-patho-attached-image"
          }
        ],
        "content": {
          "contentType": "image/png",
          "url": "https://www.charite.de/fhir/sid/patho/image"
        },
        "type": {
          "coding": [
            {
              "system": "http://terminology.hl7.org/CodeSystem/media-type",
              "code": "image"
            }
          ]
        },
        "status": "completed",
        "subject": {
          "reference": "Specimen/mii-exa-test-data-patient-1-patho-prostate-tru-cut-biopsy-sample"
        }
      }
    },
    {
      "request": {
        "method": "POST",
        "url": "Specimen"
      },
      "fullUrl": "https://www.medizininformatik-initiative.de/Specimen/mii-exa-test-data-patient-1-patho-prostate-tru-cut-biopsy-sample",
      "resource": {
        "resourceType": "Specimen",
        "id": "mii-exa-test-data-patient-1-patho-prostate-tru-cut-biopsy-sample",
        "meta": {
          "profile": [
            "https://www.medizininformatik-initiative.de/fhir/ext/modul-patho/StructureDefinition/mii-pr-patho-specimen"
          ]
        },
        "text": {
          "status": "additional",
          "div": "<div xmlns=\"http://www.w3.org/1999/xhtml\"><div id=\"specimen-a-title\"><b>Probe A</b></div><table><tr><td>Entnahmeart</td><td>transrektale Stanzbiopsie</td></tr></table></div>"
        },
        "identifier": [
          {
            "type": {
              "coding": [
                {
                  "code": "FILL",
                  "system": "http://terminology.hl7.org/CodeSystem/v2-0203"
                }
              ]
            },
            "value": "E12345_21-A1",
            "system": "https://www.charite.de/fhir/sid/untersuchungsauftrag"
          }
        ],
        "accessionIdentifier": {
          "value": "E12345_21",
          "system": "https://www.charite.de/fhir/sid/untersuchungsauftrag"
        },
        "request": [
          {
            "reference": "ServiceRequest/mii-exa-test-data-patient-1-patho-request-1"
          }
        ],
        "collection": {
          "collectedDateTime": "2021-01-29T06:15:00Z",
          "method": {
            "coding": [
              {
                "code": "301759007",
                "system": "http://snomed.info/sct",
                "version": "http://snomed.info/sct/900000000000207008/version/20230731",
                "display": "Tru-cut biopsy of prostate (procedure)"
              }
            ]
          },
          "bodySite": {
            "coding": [
              {
                "code": "716917000",
                "system": "http://snomed.info/sct",
                "version": "http://snomed.info/sct/900000000000207008/version/20230731",
                "display": "Structure of lateral middle regional part of peripheral zone of right half prostate (body structure)"
              }
            ]
          }
        },
        "container": [
          {
            "type": {
              "coding": [
                {
                  "code": "434746001",
                  "system": "http://snomed.info/sct",
                  "version": "http://snomed.info/sct/900000000000207008/version/20230731",
                  "display": "Specimen vial (physical object)"
                }
              ]
            },
            "additiveReference": {
              "reference": "Substance/mii-exa-test-data-patient-1-patho-neutral-buffered-formalin"
            }
          }
        ],
        "status": "available",
        "type": {
          "coding": [
            {
              "code": "309134005",
              "system": "http://snomed.info/sct",
              "version": "http://snomed.info/sct/900000000000207008/version/20230731",
              "display": "Prostate tru-cut biopsy sample"
            }
          ]
        },
        "subject": {
          "reference": "Patient/mii-exa-test-data-patient-1"
        }
      }
    },
    {
      "request": {
        "method": "POST",
        "url": "Substance"
      },
      "fullUrl": "https://www.medizininformatik-initiative.de/Substance/mii-exa-test-data-patient-1-patho-neutral-buffered-formalin",
      "resource": {
        "resourceType": "Substance",
        "id": "mii-exa-test-data-patient-1-patho-neutral-buffered-formalin",
        "meta": {
          "profile": [
            "https://www.medizininformatik-initiative.de/fhir/ext/modul-biobank/StructureDefinition/Substance"
          ]
        },
        "code": {
          "coding": [
            {
              "code": "434162003",
              "system": "http://snomed.info/sct",
              "version": "http://snomed.info/sct/900000000000207008/version/20230731",
              "display": "Neutral buffered formalin (substance)"
            }
          ]
        }
      }
    },
    {
      "request": {
        "method": "POST",
        "url": "Specimen"
      },
      "fullUrl": "https://www.medizininformatik-initiative.de/Specimen/mii-exa-test-data-patient-1-patho-he-stained-slide-prostate",
      "resource": {
        "resourceType": "Specimen",
        "id": "mii-exa-test-data-patient-1-patho-he-stained-slide-prostate",
        "meta": {
          "profile": [
            "https://www.medizininformatik-initiative.de/fhir/ext/modul-patho/StructureDefinition/mii-pr-patho-specimen|1.0.0"
          ]
        },
        "text": {
          "status": "additional",
          "div": "<div xmlns=\"http://www.w3.org/1999/xhtml\"><div id=\"specimen-a-title\"><b>Probe A</b></div><table><tr><td>Entnahmeart</td><td>transrektale Stanzbiopsie</td></tr><tr id=\"bearbeitungsprozedur\"><td id=\"bearbeitungsprozedur-key\">Bearbeitungsprozedur</td><td id=\"bearbeitungsprozedur-value\">Einbetten, schneiden, färben</td></tr><tr><td>Färbung</td><td>4% gepuffertes Formalin HE</td></tr></table></div>"
        },
        "identifier": [
          {
            "type": {
              "coding": [
                {
                  "code": "FILL",
                  "system": "http://terminology.hl7.org/CodeSystem/v2-0203"
                }
              ]
            },
            "value": "E12345_21-A1-1HE",
            "system": "https://www.charite.de/fhir/sid/untersuchungsauftrag"
          }
        ],
        "accessionIdentifier": {
          "value": "E12345_21",
          "system": "https://www.charite.de/fhir/sid/untersuchungsauftrag"
        },
        "parent": [
          {
            "reference": "Specimen/mii-exa-test-data-patient-1-patho-prostate-tru-cut-biopsy-sample"
          }
        ],
        "request": [
          {
            "reference": "ServiceRequest/mii-exa-test-data-patient-1-patho-request-1"
          }
        ],
        "collection": {
          "collectedDateTime": "2021-01-29T06:15:00Z",
          "method": {
            "coding": [
              {
                "code": "301759007",
                "system": "http://snomed.info/sct",
                "version": "http://snomed.info/sct/900000000000207008/version/20230731",
                "display": "Tru-cut biopsy of prostate (procedure)"
              }
            ]
          },
          "bodySite": {
            "coding": [
              {
                "code": "716917000",
                "system": "http://snomed.info/sct",
                "version": "http://snomed.info/sct/900000000000207008/version/20230731",
                "display": "Structure of lateral middle regional part of peripheral zone of right half prostate (body structure)"
              }
            ]
          }
        },
        "processing": [
          {
            "extension": [
              {
                "valueRange": {
                  "low": {
                    "unit": "°C",
                    "system": "http://unitsofmeasure.org",
                    "code": "Cel",
                    "value": 0
                  },
                  "high": {
                    "unit": "°C",
                    "system": "http://unitsofmeasure.org",
                    "code": "Cel",
                    "value": 30
                  }
                },
                "url": "https://www.medizininformatik-initiative.de/fhir/ext/modul-biobank/StructureDefinition/Temperaturbedingungen"
              }
            ],
            "procedure": {
              "coding": [
                {
                  "code": "40923002",
                  "system": "http://snomed.info/sct",
                  "version": "http://snomed.info/sct/900000000000207008/version/20230731",
                  "display": "Tissue processing technique, routine, embed, cut and stain, per surgical specimen (procedure)"
                }
              ],
              "extension": [
                {
                  "url": "http://hl7.org/fhir/StructureDefinition/narrativeLink",
                  "valueUrl": "#bearbeitungsprozedur"
                }
              ]
            }
          },
          {
            "extension": [
              {
                "valueRange": {
                  "low": {
                    "unit": "°C",
                    "system": "http://unitsofmeasure.org",
                    "code": "Cel",
                    "value": 0
                  },
                  "high": {
                    "unit": "°C",
                    "system": "http://unitsofmeasure.org",
                    "code": "Cel",
                    "value": 30
                  }
                },
                "url": "https://www.medizininformatik-initiative.de/fhir/ext/modul-biobank/StructureDefinition/Temperaturbedingungen"
              }
            ],
            "procedure": {
              "coding": [
                {
                  "code": "104210008",
                  "system": "http://snomed.info/sct",
                  "version": "http://snomed.info/sct/900000000000207008/version/20230731",
                  "display": "Hematoxylin and eosin stain method (procedure)"
                }
              ],
              "extension": [
                {
                  "url": "http://hl7.org/fhir/StructureDefinition/narrativeLink",
                  "valueUrl": "#faerbung"
                }
              ]
            },
            "additive": [
              {
                "reference": "Substance/mii-exa-test-data-patient-1-patho-hematoxylin-stain"
              },
              {
                "reference": "Substance/mii-exa-test-data-patient-1-patho-eosin-y"
              }
            ],
            "timePeriod": {
              "start": "2021-01-29T07:15:00Z"
            }
          }
        ],
        "container": [
          {
            "type": {
              "coding": [
                {
                  "code": "433466003",
                  "system": "http://snomed.info/sct",
                  "version": "http://snomed.info/sct/900000000000207008/version/20230731",
                  "display": "Microscope slide (physical object)"
                }
              ]
            },
            "additiveReference": {
              "reference": "Substance/mii-exa-test-data-patient-1-patho-microscope-slide-mounting-med"
            }
          },
          {
            "type": {
              "coding": [
                {
                  "code": "433472003",
                  "system": "http://snomed.info/sct",
                  "version": "http://snomed.info/sct/900000000000207008/version/20230731",
                  "display": "Microscope slide coverslip (physical object)"
                }
              ]
            },
            "additiveReference": {
              "reference": "Substance/mii-exa-test-data-patient-1-patho-microscope-slide-mounting-med"
            }
          }
        ],
        "status": "available",
        "type": {
          "coding": [
            {
              "code": "787150001",
              "system": "http://snomed.info/sct",
              "version": "http://snomed.info/sct/900000000000207008/version/20230731",
              "display": "Stained slide of tissue section (specimen)"
            }
          ]
        },
        "subject": {
          "reference": "Patient/mii-exa-test-data-patient-1"
        }
      }
    },
    {
      "request": {
        "method": "POST",
        "url": "Substance"
      },
      "fullUrl": "https://www.medizininformatik-initiative.de/Substance/mii-exa-test-data-patient-1-patho-hematoxylin-stain",
      "resource": {
        "resourceType": "Substance",
        "id": "mii-exa-test-data-patient-1-patho-hematoxylin-stain",
        "meta": {
          "profile": [
            "https://www.medizininformatik-initiative.de/fhir/ext/modul-biobank/StructureDefinition/Substance"
          ]
        },
        "code": {
          "coding": [
            {
              "code": "12710003",
              "system": "http://snomed.info/sct",
              "version": "http://snomed.info/sct/900000000000207008/version/20230731",
              "display": "Hematoxylin stain (substance)"
            }
          ]
        }
      }
    },
    {
      "request": {
        "method": "POST",
        "url": "Substance"
      },
      "fullUrl": "https://www.medizininformatik-initiative.de/Substance/mii-exa-test-data-patient-1-patho-eosin-y",
      "resource": {
        "resourceType": "Substance",
        "id": "mii-exa-test-data-patient-1-patho-eosin-y",
        "meta": {
          "profile": [
            "https://www.medizininformatik-initiative.de/fhir/ext/modul-biobank/StructureDefinition/Substance"
          ]
        },
        "code": {
          "coding": [
            {
              "code": "763042003",
              "system": "http://snomed.info/sct",
              "version": "http://snomed.info/sct/900000000000207008/version/20230731",
              "display": "Eosin Y (substance)"
            }
          ]
        }
      }
    },
    {
      "request": {
        "method": "POST",
        "url": "Substance"
      },
      "fullUrl": "https://www.medizininformatik-initiative.de/Substance/mii-exa-test-data-patient-1-patho-microscope-slide-mounting-med",
      "resource": {
        "resourceType": "Substance",
        "id": "mii-exa-test-data-patient-1-patho-microscope-slide-mounting-med",
        "meta": {
          "profile": [
            "https://www.medizininformatik-initiative.de/fhir/ext/modul-biobank/StructureDefinition/Substance"
          ]
        },
        "code": {
          "coding": [
            {
              "code": "430862008",
              "system": "http://snomed.info/sct",
              "version": "http://snomed.info/sct/900000000000207008/version/20230731",
              "display": "Microscope slide mounting medium (substance)"
            }
          ]
        }
      }
    },
    {
      "request": {
        "method": "POST",
        "url": "ImagingStudy"
      },
      "fullUrl": "https://www.medizininformatik-initiative.de/ImagingStudy/mii-exa-test-data-patient-1-patho-imagingstudy-1",
      "resource": {
        "resourceType": "ImagingStudy",
        "id": "mii-exa-test-data-patient-1-patho-imagingstudy-1",
        "status": "unknown",
        "subject": {
          "reference": "Patient/mii-exa-test-data-patient-1"
        },
        "encounter": {
          "reference": "Encounter/mii-exa-test-data-patient-1-encounter-1"
        }
      }
    },
    {
      "request": {
        "method": "POST",
        "url": "PractitionerRole"
      },
      "fullUrl": "https://www.medizininformatik-initiative.de/PractitionerRole/mii-exa-test-data-practitioner-role-physician-1",
      "resource": {
        "resourceType": "PractitionerRole",
        "id": "mii-exa-test-data-practitioner-role-physician-1",
        "meta": {
          "profile": [
            "https://www.medizininformatik-initiative.de/fhir/modul-studie/StructureDefinition/mii-pr-studie-beteiligte-person"
          ]
        },
        "code": [
          {
            "coding": [
              {
                "code": "309343006",
                "system": "http://snomed.info/sct",
                "version": "http://snomed.info/sct/900000000000207008/version/20230731",
                "display": "Physician (occupation)"
              }
            ]
          }
        ],
        "active": true,
        "practitioner": {
          "reference": "Practitioner/mii-exa-test-data-practitioner-physician-1"
        },
        "organization": {
          "reference": "Organization/mii-exa-test-data-organization-charite"
        }
      }
    },
    {
      "request": {
        "method": "POST",
        "url": "Practitioner"
      },
      "fullUrl": "https://www.medizininformatik-initiative.de/Practitioner/mii-exa-test-data-practitioner-physician-1",
      "resource": {
        "resourceType": "Practitioner",
        "id": "mii-exa-test-data-practitioner-physician-1",
        "name": [
          {
            "given": [
              "Rahel"
            ],
            "family": "Hirsch"
          }
        ],
        "active": true
      }
    },
    {
      "request": {
        "method": "POST",
        "url": "DocumentReference"
      },
      "fullUrl": "https://www.medizininformatik-initiative.de/DocumentReference/mii-exa-test-data-documentreference-1",
      "resource": {
        "resourceType": "DocumentReference",
        "id": "mii-exa-test-data-documentreference-1",
        "meta": {
          "profile": [
            "https://www.medizininformatik-initiative.de/fhir/modul-studie/StructureDefinition/mii-pr-studie-dokument"
          ]
        },
        "author": [
          {
            "reference": "Practitioner/mii-exa-test-data-practitioner-physician-1"
          }
        ],
        "content": [
          {
            "attachment": {
              "contentType": "application/pdf",
              "url": "https://www.medizininformatik-initiative.de/sites/default/files/inline-files/MII_04_Kerndatensatz_1-0.pdf",
              "size": 579000,
              "title": "MI-I-Kerndatensatz"
            }
          }
        ],
        "status": "current",
        "custodian": {
          "reference": "Organization/mii-exa-test-data-organization-charite"
        }
      }
    },
    {
      "request": {
        "method": "POST",
        "url": "EvidenceVariable"
      },
      "fullUrl": "https://www.medizininformatik-initiative.de/EvidenceVariable/mii-exa-test-data-evidencevariable-1",
      "resource": {
        "resourceType": "EvidenceVariable",
        "id": "mii-exa-test-data-evidencevariable-1",
        "meta": {
          "profile": [
            "https://www.medizininformatik-initiative.de/fhir/modul-studie/StructureDefinition/mii-pr-studie-ein-auschluss-kriterium"
          ]
        },
        "characteristic": [
          {
            "extension": [
              {
                "url": "http://hl7.org/fhir/5.0/StructureDefinition/extension-EvidenceVariable.characteristic.linkId",
                "valueId": "mii-exa-test-data-evidencevariable-1-characteristic-1"
              },
              {
                "url": "http://hl7.org/fhir/5.0/StructureDefinition/extension-EvidenceVariable.characteristic.definitionReference",
                "valueReference": {
                  "reference": "Group/mii-exa-test-data-group-1"
                }
              }
            ],
            "description": "Example description",
            "definitionCodeableConcept": {
              "coding": [
                {
                  "code": "116154003",
                  "system": "http://snomed.info/sct",
                  "version": "http://snomed.info/sct/900000000000207008/version/20230731",
                  "display": "Patient (person)"
                }
              ]
            },
            "exclude": false
          }
        ],
        "status": "active"
      }
    },
    {
      "request": {
        "method": "POST",
        "url": "Group"
      },
      "fullUrl": "https://www.medizininformatik-initiative.de/Group/mii-exa-test-data-group-1",
      "resource": {
        "resourceType": "Group",
        "id": "mii-exa-test-data-group-1",
        "active": true,
        "type": "person",
        "actual": false,
        "code": {
          "coding": [
            {
              "code": "116154003",
              "system": "http://snomed.info/sct",
              "version": "http://snomed.info/sct/900000000000207008/version/20230731",
              "display": "Patient (person)"
            }
          ]
        },
        "managingEntity": {
          "reference": "Organization/mii-exa-test-data-organization-charite"
        }
      }
    },
    {
      "request": {
        "method": "POST",
        "url": "Library"
      },
      "fullUrl": "https://www.medizininformatik-initiative.de/Library/mii-exa-test-data-register-1",
      "resource": {
        "resourceType": "Library",
        "id": "mii-exa-test-data-register-1",
        "meta": {
          "profile": [
            "https://www.medizininformatik-initiative.de/fhir/modul-studie/StructureDefinition/mii-pr-studie-register"
          ]
        },
        "extension": [
          {
            "url": "https://www.medizininformatik-initiative.de/fhir/modul-studie/StructureDefinition/mii-ex-studie-quell-register",
            "valueBoolean": true
          }
        ],
        "identifier": [
          {
            "value": "DRKS",
            "system": "https://www.medizininformatik-initiative.de/fhir/sid/drks"
          }
        ],
        "relatedArtifact": [
          {
            "document": {
              "url": "https://drks.de/"
            },
            "type": "documentation"
          }
        ],
        "type": {
          "coding": [
            {
              "system": "http://terminology.hl7.org/CodeSystem/library-type",
              "code": "asset-collection"
            }
          ]
        },
        "status": "active",
        "name": "DRKS - Deutsches Register Klinischer Studien"
      }
    },
    {
      "request": {
        "method": "POST",
        "url": "ResearchStudy"
      },
      "fullUrl": "https://www.medizininformatik-initiative.de/ResearchStudy/mii-exa-test-data-researchstudy-1",
      "resource": {
        "resourceType": "ResearchStudy",
        "id": "mii-exa-test-data-researchstudy-1",
        "meta": {
          "profile": [
            "https://www.medizininformatik-initiative.de/fhir/modul-studie/StructureDefinition/mii-pr-studie-studie"
          ]
        },
        "extension": [
          {
            "extension": [
              {
                "url": "value",
                "valueString": "Label Example"
              }
            ],
            "url": "http://hl7.org/fhir/5.0/StructureDefinition/extension-ResearchStudy.label"
          },
          {
            "extension": [
              {
                "url": "role",
                "valueCodeableConcept": {
                  "coding": [
                    {
                      "code": "collaborator",
                      "system": "http://hl7.org/fhir/research-study-party-role"
                    }
                  ]
                }
              },
              {
                "url": "party",
                "valueReference": {
                  "reference": "Organization/mii-exa-test-data-organization-charite"
                }
              }
            ],
            "url": "http://hl7.org/fhir/5.0/StructureDefinition/extension-ResearchStudy.associatedParty"
          },
          {
            "extension": [
              {
                "url": "status",
                "valueString": "genehmigt"
              },
              {
                "url": "kommission",
                "valueString": "Ethikkommission der Charité"
              },
              {
                "url": "ethiknummer",
                "valueString": "C40036730"
              }
            ],
            "url": "https://www.medizininformatik-initiative.de/fhir/modul-studie/StructureDefinition/mii-ex-studie-ethikvotum"
          },
          {
            "url": "https://www.medizininformatik-initiative.de/fhir/modul-studie/StructureDefinition/mii-ex-studie-studienregister",
            "valueReference": {
              "reference": "Library/mii-exa-test-data-register-1"
            }
          },
          {
            "url": "https://www.medizininformatik-initiative.de/fhir/modul-studie/StructureDefinition/mii-ex-studie-eligibility",
            "valueReference": {
              "reference": "Group/mii-exa-test-data-group-1"
            }
          },
          {
            "url": "https://www.medizininformatik-initiative.de/fhir/modul-studie/StructureDefinition/mii-ex-studie-akronym",
            "valueString": "Akronym Example"
          },
          {
            "extension": [
              {
                "url": "rekrutierungsstand-datum",
                "valueDate": "2024-07-01"
              },
              {
                "url": "rekrutierungsstand-genauigkeit",
                "valueString": "Genauigkeit Example"
              },
              {
                "url": "rekrutierungsstand",
                "valueInteger": 200
              },
              {
                "url": "rekrutierungsziel",
                "valueInteger": 200
              },
              {
                "url": "rekrutierungsstart",
                "valueDate": "2024-01-01"
              }
            ],
            "url": "https://www.medizininformatik-initiative.de/fhir/modul-studie/StructureDefinition/mii-ex-studie-rekrutierung"
          },
          {
            "url": "https://www.medizininformatik-initiative.de/fhir/modul-studie/StructureDefinition/mii-ex-studie-finanzierung",
            "valueString": "Haushalt"
          }
        ],
        "identifier": [
          {
            "system": "https://www.medizininformatik-initiative.de/fhir/studien",
            "value": "81021291"
          }
        ],
        "category": [
          {
            "coding": [
              {
                "code": "phase-3",
                "system": "http://terminology.hl7.org/CodeSystem/research-study-phase"
              }
            ]
          }
        ],
        "focus": [
          {
            "coding": [
              {
                "code": "362969004",
                "system": "http://snomed.info/sct",
                "version": "http://snomed.info/sct/900000000000207008/version/20230731",
                "display": "Disorder of endocrine system (disorder)"
              }
            ],
            "text": "Focus Example"
          }
        ],
        "keyword": [
          {
            "text": "Keyword Example"
          }
        ],
        "arm": [
          {
            "name": "Arm 1",
            "description": "Description for Arm 1"
          },
          {
            "name": "Arm 2",
            "description": "Description for Arm 2"
          }
        ],
        "title": "Example Research Study",
        "status": "active"
      }
    }
  ],
  "type": "transaction",
  "timestamp": "2025-06-18T13:51:00+02:00"
}
