{
  "resourceType": "Bundle",
  "id": "mii-exa-test-data-bundle-onko-mamma",
  "meta": {
    "security": [
      {
        "code": "HTEST",
        "system": "http://terminology.hl7.org/CodeSystem/v3-ActReason",
        "display": "test health data"
      }
    ]
  },
  "entry": [
    {
      "request": {
        "method": "POST",
        "url": "Patient"
      },
      "fullUrl": "https://www.medizininformatik-initiative.de/Patient/mii-exa-test-data-patient-onko-mamma",
      "resource": {
        "resourceType": "Patient",
        "id": "mii-exa-test-data-patient-onko-mamma",
        "meta": {
          "profile": [
            "https://www.medizininformatik-initiative.de/fhir/core/modul-person/StructureDefinition/Patient"
          ]
        },
        "name": [
          {
            "given": [
              "Martha"
            ],
            "use": "official",
            "family": "MammaCA"
          }
        ],
        "gender": "female"
      }
    },
    {
      "request": {
        "method": "POST",
        "url": "Condition"
      },
      "fullUrl": "https://www.medizininformatik-initiative.de/Condition/mii-exa-test-data-onko-mamma-primaerdiagnose",
      "resource": {
        "resourceType": "Condition",
        "id": "mii-exa-test-data-onko-mamma-primaerdiagnose",
        "meta": {
          "security": [
            {
              "code": "HTEST",
              "system": "http://terminology.hl7.org/CodeSystem/v3-ActReason",
              "display": "test health data"
            }
          ],
          "profile": [
            "https://www.medizininformatik-initiative.de/fhir/ext/modul-onko/StructureDefinition/mii-pr-onko-diagnose-primaertumor"
          ]
        },
        "code": {
          "coding": [
            {
              "extension": [
                {
                  "url": "http://fhir.de/StructureDefinition/icd-10-gm-mehrfachcodierungs-kennzeichen",
                  "valueCoding": {
                    "code": "†",
                    "system": "http://fhir.de/CodeSystem/icd-10-gm-mehrfachcodierungs-kennzeichen"
                  }
                },
                {
                  "url": "http://fhir.de/StructureDefinition/seitenlokalisation",
                  "valueCoding": {
                    "code": "R",
                    "system": "https://fhir.kbv.de/CodeSystem/KBV_CS_SFHIR_ICD_SEITENLOKALISATION",
                    "display": "rechts"
                  }
                },
                {
                  "url": "http://fhir.de/StructureDefinition/icd-10-gm-diagnosesicherheit",
                  "valueCoding": {
                    "code": "G",
                    "system": "https://fhir.kbv.de/CodeSystem/KBV_CS_SFHIR_ICD_DIAGNOSESICHERHEIT",
                    "display": "gesicherte Diagnose"
                  }
                }
              ],
              "system": "http://fhir.de/CodeSystem/bfarm/icd-10-gm",
              "code": "C50.4",
              "version": "2023"
            }
          ]
        },
        "note": [
          {
            "text": "Bösartige Neubildung: Oberer äußerer Quadrant der Brustdrüse"
          }
        ],
        "extension": [
          {
            "url": "http://hl7.org/fhir/StructureDefinition/condition-assertedDate",
            "valueDateTime": "2021-05-09"
          },
          {
            "valueCodeableConcept": {
              "coding": [
                {
                  "system": "http://terminology.hl7.org/CodeSystem/icd-o-3",
                  "code": "8500/3",
                  "display": "Invasives duktales Karzinom o.n.A."
                }
              ]
            },
            "url": "https://www.medizininformatik-initiative.de/fhir/ext/modul-onko/StructureDefinition/mii-ex-onko-histology-morphology-behavior-icdo3"
          }
        ],
        "clinicalStatus": {
          "coding": [
            {
              "code": "active",
              "system": "http://terminology.hl7.org/CodeSystem/condition-clinical"
            }
          ]
        },
        "verificationStatus": {
          "coding": [
            {
              "code": "confirmed",
              "system": "http://terminology.hl7.org/CodeSystem/condition-ver-status"
            }
          ]
        },
        "subject": {
          "reference": "Patient/mii-exa-test-data-patient-onko-mamma"
        },
        "recordedDate": "2020-02-16",
        "onsetDateTime": "2024-02-21"
      }
    },
    {
      "request": {
        "method": "POST",
        "url": "Encounter"
      },
      "fullUrl": "https://www.medizininformatik-initiative.de/Encounter/mii-exa-test-data-onko-mamma-fall",
      "resource": {
        "resourceType": "Encounter",
        "id": "mii-exa-test-data-onko-mamma-fall",
        "meta": {
          "security": [
            {
              "code": "HTEST",
              "system": "http://terminology.hl7.org/CodeSystem/v3-ActReason",
              "display": "test health data"
            }
          ],
          "profile": [
            "https://www.medizininformatik-initiative.de/fhir/core/modul-fall/StructureDefinition/KontaktGesundheitseinrichtung"
          ]
        },
        "identifier": [
          {
            "type": {
              "coding": [
                {
                  "system": "http://terminology.hl7.org/CodeSystem/v2-0203",
                  "code": "VN"
                }
              ]
            },
            "system": "https://www.charite.de/fhir/NamingSystem/Aufnahmenummern",
            "value": "MII_ONKO_000001"
          }
        ],
        "type": [
          {
            "coding": [
              {
                "system": "http://fhir.de/CodeSystem/Kontaktebene",
                "code": "einrichtungskontakt"
              }
            ]
          },
          {
            "coding": [
              {
                "system": "http://fhir.de/CodeSystem/kontaktart-de",
                "code": "normalstationaer"
              }
            ]
          }
        ],
        "serviceType": {
          "coding": [
            {
              "system": "http://fhir.de/CodeSystem/dkgev/Fachabteilungsschluessel",
              "code": "0100"
            }
          ]
        },
        "status": "finished",
        "class": {
          "code": "IMP",
          "system": "http://terminology.hl7.org/CodeSystem/v3-ActCode"
        },
        "subject": {
          "reference": "Patient/mii-exa-test-data-patient-onko-mamma"
        }
      }
    },
    {
      "request": {
        "method": "POST",
        "url": "Specimen"
      },
      "fullUrl": "https://www.medizininformatik-initiative.de/Specimen/mii-exa-test-data-onko-mamma-specimen",
      "resource": {
        "resourceType": "Specimen",
        "id": "mii-exa-test-data-onko-mamma-specimen",
        "meta": {
          "security": [
            {
              "code": "HTEST",
              "system": "http://terminology.hl7.org/CodeSystem/v3-ActReason",
              "display": "test health data"
            }
          ],
          "profile": [
            "https://www.medizininformatik-initiative.de/fhir/ext/modul-onko/StructureDefinition/mii-pr-onko-specimen"
          ]
        },
        "subject": {
          "reference": "Patient/mii-exa-test-data-patient-onko-mamma"
        }
      }
    },
    {
      "request": {
        "method": "POST",
        "url": "Observation"
      },
      "fullUrl": "https://www.medizininformatik-initiative.de/Observation/mii-exa-test-data-onko-mamma-lymphknotenuntersuchung",
      "resource": {
        "resourceType": "Observation",
        "id": "mii-exa-test-data-onko-mamma-lymphknotenuntersuchung",
        "meta": {
          "security": [
            {
              "code": "HTEST",
              "system": "http://terminology.hl7.org/CodeSystem/v3-ActReason",
              "display": "test health data"
            }
          ],
          "profile": [
            "https://www.medizininformatik-initiative.de/fhir/ext/modul-onko/StructureDefinition/mii-pr-onko-anzahl-befallene-lymphknoten"
          ]
        },
        "code": {
          "coding": [
            {
              "system": "http://loinc.org",
              "code": "21893-3"
            }
          ]
        },
        "focus": [
          {
            "reference": "Condition/mii-exa-test-data-onko-mamma-primaerdiagnose"
          }
        ],
        "category": [
          {
            "coding": [
              {
                "system": "http://terminology.hl7.org/CodeSystem/observation-category",
                "code": "laboratory"
              }
            ]
          }
        ],
        "subject": {
          "reference": "Patient/mii-exa-test-data-patient-onko-mamma"
        },
        "status": "final",
        "effectiveDateTime": "2024-05-11"
      }
    },
    {
      "request": {
        "method": "POST",
        "url": "Observation"
      },
      "fullUrl": "https://www.medizininformatik-initiative.de/Observation/mii-exa-test-data-onko-mamma-genetische-variante",
      "resource": {
        "resourceType": "Observation",
        "id": "mii-exa-test-data-onko-mamma-genetische-variante",
        "meta": {
          "security": [
            {
              "code": "HTEST",
              "system": "http://terminology.hl7.org/CodeSystem/v3-ActReason",
              "display": "test health data"
            }
          ],
          "profile": [
            "https://www.medizininformatik-initiative.de/fhir/ext/modul-onko/StructureDefinition/mii-pr-onko-genetische-variante"
          ]
        },
        "focus": [
          {
            "reference": "Condition/mii-exa-test-data-onko-mamma-primaerdiagnose"
          }
        ],
        "code": {
          "coding": [
            {
              "system": "http://loinc.org",
              "code": "69548-6"
            }
          ]
        },
        "interpretation": [
          {
            "coding": [
              {
                "code": "M",
                "system": "https://www.medizininformatik-initiative.de/fhir/ext/modul-onko/CodeSystem/mii-cs-onko-genetische-variante-auspraegung"
              }
            ]
          }
        ],
        "note": [
          {
            "text": "BRAF1 Class II Mutation"
          }
        ],
        "category": [
          {
            "coding": [
              {
                "system": "http://terminology.hl7.org/CodeSystem/observation-category",
                "code": "laboratory"
              }
            ]
          }
        ],
        "subject": {
          "reference": "Patient/mii-exa-test-data-patient-onko-mamma"
        },
        "status": "final",
        "effectiveDateTime": "2022-02-08"
      }
    },
    {
      "request": {
        "method": "POST",
        "url": "DiagnosticReport"
      },
      "fullUrl": "https://www.medizininformatik-initiative.de/DiagnosticReport/mii-exa-test-data-onko-mamma-histologiebefund",
      "resource": {
        "resourceType": "DiagnosticReport",
        "id": "mii-exa-test-data-onko-mamma-histologiebefund",
        "meta": {
          "security": [
            {
              "code": "HTEST",
              "system": "http://terminology.hl7.org/CodeSystem/v3-ActReason",
              "display": "test health data"
            }
          ],
          "profile": [
            "https://www.medizininformatik-initiative.de/fhir/ext/modul-onko/StructureDefinition/mii-pr-onko-befund"
          ]
        },
        "code": {
          "coding": [
            {
              "system": "http://loinc.org",
              "code": "22034-3"
            }
          ]
        },
        "specimen": [
          {
            "reference": "Specimen/mii-exa-test-data-onko-mamma-specimen"
          }
        ],
        "basedOn": [
          {
            "reference": "CarePlan/mii-exa-test-data-onko-mamma-tumorkonferenz"
          }
        ],
        "subject": {
          "reference": "Patient/mii-exa-test-data-patient-onko-mamma"
        },
        "conclusion": "Mäßig differenziertes invasiv duktales Karzinom (8500/3), Grading G2 an der rechten Mamma, ...",
        "status": "final"
      }
    },
    {
      "request": {
        "method": "POST",
        "url": "Observation"
      },
      "fullUrl": "https://www.medizininformatik-initiative.de/Observation/mii-exa-test-data-onko-mamma-tod",
      "resource": {
        "resourceType": "Observation",
        "id": "mii-exa-test-data-onko-mamma-tod",
        "meta": {
          "security": [
            {
              "code": "HTEST",
              "system": "http://terminology.hl7.org/CodeSystem/v3-ActReason",
              "display": "test health data"
            }
          ],
          "profile": [
            "https://www.medizininformatik-initiative.de/fhir/ext/modul-onko/StructureDefinition/mii-pr-onko-tod"
          ]
        },
        "focus": [
          {
            "reference": "Condition/mii-exa-test-data-onko-mamma-primaerdiagnose"
          }
        ],
        "interpretation": [
          {
            "coding": [
              {
                "code": "N",
                "system": "https://www.medizininformatik-initiative.de/fhir/ext/modul-onko/CodeSystem/mii-cs-onko-tod",
                "display": "Nein, die Person ist nicht an einer Tumorerkrankung oder Folge einer Tumorerkrankung (einschließlich Behandlungskomplikation) verstorben."
              }
            ]
          }
        ],
        "code": {
          "coding": [
            {
              "system": "http://snomed.info/sct",
              "code": "184305005",
              "version": "http://snomed.info/sct/900000000000207008/version/20230731"
            }
          ]
        },
        "valueCodeableConcept": {
          "coding": [
            {
              "system": "http://fhir.de/CodeSystem/bfarm/icd-10-gm",
              "code": "C50.3",
              "display": "Bösartige Neubildung: Unterer innerer Quadrant der Brustdrüse",
              "version": "2022"
            }
          ]
        },
        "subject": {
          "reference": "Patient/mii-exa-test-data-patient-onko-mamma"
        },
        "status": "final",
        "effectiveDateTime": "2024-02-08"
      }
    },
    {
      "request": {
        "method": "POST",
        "url": "Observation"
      },
      "fullUrl": "https://www.medizininformatik-initiative.de/Observation/mii-exa-test-data-onko-mamma-studienteilnahme",
      "resource": {
        "resourceType": "Observation",
        "id": "mii-exa-test-data-onko-mamma-studienteilnahme",
        "meta": {
          "security": [
            {
              "code": "HTEST",
              "system": "http://terminology.hl7.org/CodeSystem/v3-ActReason",
              "display": "test health data"
            }
          ],
          "profile": [
            "https://www.medizininformatik-initiative.de/fhir/ext/modul-onko/StructureDefinition/mii-pr-onko-studienteilnahme"
          ]
        },
        "focus": [
          {
            "reference": "Condition/mii-exa-test-data-onko-mamma-primaerdiagnose"
          }
        ],
        "code": {
          "coding": [
            {
              "system": "http://snomed.info/sct",
              "code": "709491003",
              "version": "http://snomed.info/sct/900000000000207008/version/20230731"
            }
          ]
        },
        "subject": {
          "reference": "Patient/mii-exa-test-data-patient-onko-mamma"
        },
        "status": "final",
        "valueCodeableConcept": {
          "coding": [
            {
              "code": "J",
              "system": "https://www.medizininformatik-initiative.de/fhir/ext/modul-onko/CodeSystem/mii-cs-onko-studienteilnahme",
              "display": "Ja"
            }
          ]
        }
      }
    },
    {
      "request": {
        "method": "POST",
        "url": "Observation"
      },
      "fullUrl": "https://www.medizininformatik-initiative.de/Observation/mii-exa-test-data-onko-mamma-verlauf",
      "resource": {
        "resourceType": "Observation",
        "id": "mii-exa-test-data-onko-mamma-verlauf",
        "meta": {
          "security": [
            {
              "code": "HTEST",
              "system": "http://terminology.hl7.org/CodeSystem/v3-ActReason",
              "display": "test health data"
            }
          ],
          "profile": [
            "https://www.medizininformatik-initiative.de/fhir/ext/modul-onko/StructureDefinition/mii-pr-onko-verlauf"
          ]
        },
        "focus": [
          {
            "reference": "Condition/mii-exa-test-data-onko-mamma-primaerdiagnose"
          }
        ],
        "component": [
          {
            "code": {
              "coding": [
                {
                  "code": "445200009",
                  "system": "http://snomed.info/sct",
                  "version": "http://snomed.info/sct/900000000000207008/version/20230731",
                  "display": "Status of residual neoplasm (observable entity)"
                }
              ]
            },
            "valueCodeableConcept": {
              "coding": [
                {
                  "code": "T",
                  "system": "https://www.medizininformatik-initiative.de/fhir/ext/modul-onko/CodeSystem/mii-cs-onko-verlauf-primaertumor",
                  "display": "Tumorreste (Residualtumor)"
                }
              ]
            }
          },
          {
            "code": {
              "coding": [
                {
                  "code": "399656008",
                  "system": "http://snomed.info/sct",
                  "version": "http://snomed.info/sct/900000000000207008/version/20230731",
                  "display": "Presence of metastatic neoplasm in regional lymph node (observable entity)"
                }
              ]
            },
            "valueCodeableConcept": {
              "coding": [
                {
                  "code": "P",
                  "system": "https://www.medizininformatik-initiative.de/fhir/ext/modul-onko/CodeSystem/mii-cs-onko-verlauf-lymphknoten",
                  "display": "Presence of metastatic neoplasm in regional lymph node (observable entity)"
                }
              ]
            }
          },
          {
            "code": {
              "coding": [
                {
                  "code": "399608002",
                  "system": "http://snomed.info/sct",
                  "version": "http://snomed.info/sct/900000000000207008/version/20230731",
                  "display": "Status of distant metastasis (observable entity)"
                }
              ]
            },
            "valueCodeableConcept": {
              "coding": [
                {
                  "code": "K",
                  "system": "https://www.medizininformatik-initiative.de/fhir/ext/modul-onko/CodeSystem/mii-cs-onko-verlauf-fernmetastasen",
                  "display": "keine Fernmetastasen nachweisbar"
                }
              ]
            }
          }
        ],
        "subject": {
          "reference": "Patient/mii-exa-test-data-patient-onko-mamma"
        },
        "status": "final",
        "code": {
          "coding": [
            {
              "code": "396432002",
              "system": "http://snomed.info/sct",
              "version": "http://snomed.info/sct/900000000000207008/version/20230731",
              "display": "Status of regression of tumor (observable entity)"
            }
          ]
        },
        "effectiveDateTime": "2024-02-08",
        "valueCodeableConcept": {
          "coding": [
            {
              "code": "B",
              "system": "https://www.medizininformatik-initiative.de/fhir/ext/modul-onko/CodeSystem/mii-cs-onko-verlauf-gesamtbeurteilung",
              "display": "klinische Besserung des Zustandes, Teilremissionkriterien jedoch nicht erfüllt (minimal response, MR)"
            }
          ]
        }
      }
    }
  ],
  "type": "transaction",
  "timestamp": "2025-06-18T14:00:00+02:00"
}
