{
  "resourceType": "Bundle",
  "id": "mii-exa-test-data-bundle-pat-3",
  "entry": [
    {
      "request": {
        "method": "POST",
        "url": "Patient"
      },
      "fullUrl": "https://www.medizininformatik-initiative.de/Patient/mii-exa-test-data-patient-3",
      "resource": {
        "resourceType": "Patient",
        "id": "mii-exa-test-data-patient-3",
        "meta": {
          "profile": [
            "https://www.medizininformatik-initiative.de/fhir/core/modul-person/StructureDefinition/Patient",
            "http://fhir.de/ConsentManagement/StructureDefinition/Patient"
          ]
        },
        "identifier": [
          {
            "assigner": {
              "identifier": {
                "system": "https://www.medizininformatik-initiative.de/fhir/core/CodeSystem/core-location-identifier",
                "value": "Charité"
              },
              "display": "Charité - Universitätsmedizin Berlin"
            },
            "type": {
              "coding": [
                {
                  "system": "http://terminology.hl7.org/CodeSystem/v2-0203",
                  "code": "MR"
                }
              ]
            },
            "use": "usual",
            "system": "https://www.medizininformatik-initiative.de/fhir/sid/patienten",
            "value": "42285243"
          },
          {
            "assigner": {
              "identifier": {
                "use": "official",
                "value": "109519005",
                "system": "http://fhir.de/sid/arge-ik/iknr"
              }
            },
            "use": "official",
            "type": {
              "coding": [
                {
                  "code": "KVZ10",
                  "system": "http://fhir.de/CodeSystem/identifier-type-de-basis"
                }
              ]
            },
            "system": "http://fhir.de/sid/gkv/kvid-10",
            "value": "Z234567890"
          }
        ],
        "name": [
          {
            "given": [
              "Clara",
              "Josephine"
            ],
            "use": "official",
            "family": "Schumann",
            "_family": {
              "extension": [
                {
                  "url": "http://hl7.org/fhir/StructureDefinition/humanname-own-name",
                  "valueString": "Schumann"
                }
              ]
            }
          },
          {
            "use": "maiden",
            "family": "Wieck"
          }
        ],
        "address": [
          {
            "line": [
              "Schöneberger Ufer 22"
            ],
            "type": "both",
            "city": "Berlin",
            "state": "DE-BE",
            "postalCode": "10785",
            "country": "DE"
          },
          {
            "line": [
              "Postfach-252618"
            ],
            "_line": [
              {
                "extension": [
                  {
                    "url": "http://hl7.org/fhir/StructureDefinition/iso21090-ADXP-postBox",
                    "valueString": "Postfach-252618"
                  }
                ]
              }
            ],
            "type": "postal",
            "city": "Berlin",
            "postalCode": "10178",
            "country": "DE"
          }
        ],
        "gender": "female",
        "birthDate": "1968-09-13",
        "deceasedBoolean": false
      }
    },
    {
      "request": {
        "method": "POST",
        "url": "Consent"
      },
      "fullUrl": "https://www.medizininformatik-initiative.de/Consent/mii-exa-test-data-patient-3-consent-1",
      "resource": {
        "resourceType": "Consent",
        "id": "mii-exa-test-data-patient-3-consent-1",
        "meta": {
          "profile": [
            "https://www.medizininformatik-initiative.de/fhir/modul-consent/StructureDefinition/mii-pr-consent-einwilligung"
          ]
        },
        "category": [
          {
            "coding": [
              {
                "system": "http://loinc.org",
                "code": "57016-8"
              }
            ]
          },
          {
            "coding": [
              {
                "code": "2.16.840.1.113883.3.1937.777.24.2.184",
                "system": "https://www.medizininformatik-initiative.de/fhir/modul-consent/CodeSystem/mii-cs-consent-consent_category"
              }
            ]
          }
        ],
        "organization": [
          {
            "reference": "Organization/mii-exa-test-data-organization-charite"
          }
        ],
        "policy": [
          {
            "uri": "urn:oid:2.16.840.1.113883.3.1937.777.24.2.1791"
          }
        ],
        "provision": {
          "period": {
            "start": "2022-04-14",
            "end": "2052-02-28"
          },
          "provision": [
            {
              "period": {
                "start": "2022-04-14",
                "end": "2052-02-28"
              },
              "code": [
                {
                  "coding": [
                    {
                      "code": "2.16.840.1.113883.3.1937.777.24.5.3.6",
                      "system": "urn:oid:2.16.840.1.113883.3.1937.777.24.5.3",
                      "display": "MDAT erheben"
                    }
                  ]
                }
              ],
              "type": "permit"
            },
            {
              "period": {
                "start": "2022-04-14",
                "end": "2052-02-28"
              },
              "code": [
                {
                  "coding": [
                    {
                      "code": "2.16.840.1.113883.3.1937.777.24.5.3.7",
                      "system": "urn:oid:2.16.840.1.113883.3.1937.777.24.5.3",
                      "display": "MDAT speichern, verarbeiten"
                    }
                  ]
                }
              ],
              "type": "permit"
            },
            {
              "period": {
                "start": "2022-04-14",
                "end": "2052-02-28"
              },
              "code": [
                {
                  "coding": [
                    {
                      "code": "2.16.840.1.113883.3.1937.777.24.5.3.8",
                      "system": "urn:oid:2.16.840.1.113883.3.1937.777.24.5.3",
                      "display": "MDAT wissenschaftlich nutzen EU DSGVO NIVEAU"
                    }
                  ]
                }
              ],
              "type": "permit"
            },
            {
              "period": {
                "start": "2022-04-14",
                "end": "2052-02-28"
              },
              "code": [
                {
                  "coding": [
                    {
                      "code": "2.16.840.1.113883.3.1937.777.24.5.3.19",
                      "system": "urn:oid:2.16.840.1.113883.3.1937.777.24.5.3",
                      "display": "BIOMAT erheben"
                    }
                  ]
                }
              ],
              "type": "permit"
            },
            {
              "period": {
                "start": "2022-04-14",
                "end": "2052-02-28"
              },
              "code": [
                {
                  "coding": [
                    {
                      "code": "2.16.840.1.113883.3.1937.777.24.5.3.20",
                      "system": "urn:oid:2.16.840.1.113883.3.1937.777.24.5.3",
                      "display": "BIOMAT lagern verarbeiten"
                    }
                  ]
                }
              ],
              "type": "permit"
            },
            {
              "period": {
                "start": "2022-04-14",
                "end": "2052-02-28"
              },
              "code": [
                {
                  "coding": [
                    {
                      "code": "2.16.840.1.113883.3.1937.777.24.5.3.22",
                      "system": "urn:oid:2.16.840.1.113883.3.1937.777.24.5.3",
                      "display": "BIOMAT wissenschaftlich nutzen EU DSGVO NIVEAU"
                    }
                  ]
                }
              ],
              "type": "permit"
            }
          ],
          "type": "deny"
        },
        "scope": {
          "coding": [
            {
              "system": "http://terminology.hl7.org/CodeSystem/consentscope",
              "code": "research"
            }
          ]
        },
        "status": "active",
        "patient": {
          "reference": "Patient/mii-exa-test-data-patient-3"
        },
        "dateTime": "2022-04-14T12:00:00+01:00"
      }
    },
    {
      "request": {
        "method": "POST",
        "url": "Encounter"
      },
      "fullUrl": "https://www.medizininformatik-initiative.de/Encounter/mii-exa-test-data-patient-3-encounter-1",
      "resource": {
        "resourceType": "Encounter",
        "id": "mii-exa-test-data-patient-3-encounter-1",
        "meta": {
          "profile": [
            "https://www.medizininformatik-initiative.de/fhir/core/modul-fall/StructureDefinition/KontaktGesundheitseinrichtung"
          ]
        },
        "identifier": [
          {
            "type": {
              "coding": [
                {
                  "system": "http://terminology.hl7.org/CodeSystem/v2-0203",
                  "code": "VN"
                }
              ]
            },
            "system": "https://www.charite.de/fhir/NamingSystem/Aufnahmenummern",
            "value": "MII_0000003"
          }
        ],
        "type": [
          {
            "coding": [
              {
                "system": "http://fhir.de/CodeSystem/Kontaktebene",
                "code": "einrichtungskontakt"
              }
            ]
          },
          {
            "coding": [
              {
                "system": "http://fhir.de/CodeSystem/kontaktart-de",
                "code": "normalstationaer"
              }
            ]
          }
        ],
        "serviceType": {
          "coding": [
            {
              "system": "http://fhir.de/CodeSystem/dkgev/Fachabteilungsschluessel",
              "code": "0100"
            }
          ]
        },
        "period": {
          "start": "2022-04-02",
          "end": "2022-04-22"
        },
        "diagnosis": [
          {
            "use": {
              "coding": [
                {
                  "code": "referral-diagnosis",
                  "system": "http://fhir.de/CodeSystem/KontaktDiagnoseProzedur",
                  "display": "Überweisungsdiagnose"
                },
                {
                  "code": "AD",
                  "system": "http://terminology.hl7.org/CodeSystem/diagnosis-role",
                  "display": "Admission diagnosis"
                }
              ]
            },
            "condition": {
              "reference": "Condition/mii-exa-test-data-patient-3-diagnose-1"
            },
            "rank": 1
          }
        ],
        "hospitalization": {
          "dischargeDisposition": {
            "extension": [
              {
                "extension": [
                  {
                    "url": "ErsteUndZweiteStelle",
                    "valueCoding": {
                      "code": "02",
                      "system": "http://fhir.de/CodeSystem/dkgev/EntlassungsgrundErsteUndZweiteStelle",
                      "display": "Behandlung regulär beendet, nachstationäre Behandlung vorgesehen"
                    }
                  },
                  {
                    "url": "DritteStelle",
                    "valueCoding": {
                      "code": "2",
                      "system": "http://fhir.de/CodeSystem/dkgev/EntlassungsgrundDritteStelle",
                      "display": "arbeitsunfähig entlassen"
                    }
                  }
                ],
                "url": "http://fhir.de/StructureDefinition/Entlassungsgrund"
              }
            ]
          },
          "admitSource": {
            "coding": [
              {
                "code": "E",
                "system": "http://fhir.de/CodeSystem/dgkev/Aufnahmeanlass",
                "display": "Einweisung durch einen Arzt"
              }
            ]
          }
        },
        "serviceProvider": {
          "identifier": {
            "system": "https://www.medizininformatik-initiative.de/fhir/core/CodeSystem/core-location-identifier",
            "value": "Charité"
          },
          "reference": "Organization/mii-exa-test-data-organization-charite",
          "display": "Charité - Universitätsmedizin Berlin"
        },
        "status": "finished",
        "class": {
          "code": "IMP",
          "system": "http://terminology.hl7.org/CodeSystem/v3-ActCode"
        },
        "subject": {
          "reference": "Patient/mii-exa-test-data-patient-3"
        }
      }
    },
    {
      "request": {
        "method": "POST",
        "url": "Condition"
      },
      "fullUrl": "https://www.medizininformatik-initiative.de/Condition/mii-exa-test-data-patient-3-diagnose-1",
      "resource": {
        "resourceType": "Condition",
        "id": "mii-exa-test-data-patient-3-diagnose-1",
        "meta": {
          "profile": [
            "https://www.medizininformatik-initiative.de/fhir/core/modul-diagnose/StructureDefinition/Diagnose"
          ]
        },
        "code": {
          "coding": [
            {
              "system": "http://fhir.de/CodeSystem/bfarm/icd-10-gm",
              "code": "C21.8",
              "version": "2022"
            },
            {
              "system": "http://fhir.de/CodeSystem/bfarm/alpha-id",
              "code": "I29975",
              "version": "2022",
              "display": "Bösartige anorektale Neubildung"
            },
            {
              "system": "http://snomed.info/sct",
              "code": "447886005",
              "version": "http://snomed.info/sct/900000000000207008/version/20230731",
              "display": "Adenocarcinoma of anorectum (disorder)"
            }
          ]
        },
        "note": [
          {
            "text": "Bösartige anorektale Neubildung"
          }
        ],
        "bodySite": [
          {
            "coding": [
              {
                "system": "http://snomed.info/sct",
                "code": "281088000",
                "version": "http://snomed.info/sct/900000000000207008/version/20230731",
                "display": "Structure of anus and/or rectum (body structure)"
              }
            ]
          }
        ],
        "clinicalStatus": {
          "coding": [
            {
              "code": "active",
              "system": "http://terminology.hl7.org/CodeSystem/condition-clinical"
            }
          ]
        },
        "verificationStatus": {
          "coding": [
            {
              "code": "confirmed",
              "system": "http://terminology.hl7.org/CodeSystem/condition-ver-status"
            }
          ]
        },
        "subject": {
          "reference": "Patient/mii-exa-test-data-patient-3"
        },
        "recordedDate": "2022-04-02"
      }
    },
    {
      "request": {
        "method": "POST",
        "url": "Procedure"
      },
      "fullUrl": "https://www.medizininformatik-initiative.de/Procedure/mii-exa-test-data-patient-3-prozedur-1",
      "resource": {
        "resourceType": "Procedure",
        "id": "mii-exa-test-data-patient-3-prozedur-1",
        "meta": {
          "profile": [
            "https://www.medizininformatik-initiative.de/fhir/core/modul-prozedur/StructureDefinition/Procedure"
          ]
        },
        "category": {
          "coding": [
            {
              "system": "http://snomed.info/sct",
              "code": "165197003",
              "version": "http://snomed.info/sct/900000000000207008/version/20230731"
            }
          ]
        },
        "code": {
          "coding": [
            {
              "system": "http://snomed.info/sct",
              "code": "274324002",
              "version": "http://snomed.info/sct/900000000000207008/version/20230731"
            },
            {
              "system": "http://fhir.de/CodeSystem/bfarm/ops",
              "code": "1-444.7",
              "version": "2022"
            }
          ]
        },
        "bodySite": [
          {
            "coding": [
              {
                "code": "372237002",
                "system": "http://snomed.info/sct",
                "version": "http://snomed.info/sct/900000000000207008/version/20230731"
              }
            ]
          }
        ],
        "note": [
          {
            "text": "Rektoskopie mit Entnahme von Gewebeproben zur histologischen Untersuchung"
          }
        ],
        "extension": [
          {
            "url": "https://www.medizininformatik-initiative.de/fhir/core/modul-prozedur/StructureDefinition/Durchfuehrungsabsicht",
            "valueCoding": {
              "system": "http://snomed.info/sct",
              "code": "261004008",
              "version": "http://snomed.info/sct/900000000000207008/version/20230731",
              "display": "Diagnostic intent"
            }
          }
        ],
        "status": "completed",
        "subject": {
          "reference": "Patient/mii-exa-test-data-patient-3"
        },
        "performedDateTime": "2022-03-15T09:30:00+02:00",
        "encounter": {
          "reference": "Encounter/mii-exa-test-data-patient-3-encounter-1"
        },
        "recorder": {
          "reference": "PractitionerRole/mii-exa-test-data-practitioner-role-physician-1"
        }
      }
    },
    {
      "request": {
        "method": "POST",
        "url": "Procedure"
      },
      "fullUrl": "https://www.medizininformatik-initiative.de/Procedure/mii-exa-test-data-patient-3-prozedur-2",
      "resource": {
        "resourceType": "Procedure",
        "id": "mii-exa-test-data-patient-3-prozedur-2",
        "meta": {
          "profile": [
            "https://www.medizininformatik-initiative.de/fhir/core/modul-prozedur/StructureDefinition/Procedure"
          ]
        },
        "category": {
          "coding": [
            {
              "system": "http://snomed.info/sct",
              "code": "387713003",
              "version": "http://snomed.info/sct/900000000000207008/version/20230731"
            }
          ]
        },
        "code": {
          "coding": [
            {
              "system": "http://snomed.info/sct",
              "code": "265414003",
              "version": "http://snomed.info/sct/900000000000207008/version/20230731"
            },
            {
              "system": "http://fhir.de/CodeSystem/bfarm/ops",
              "code": "5-485.02",
              "version": "2022"
            }
          ]
        },
        "bodySite": [
          {
            "coding": [
              {
                "code": "34402009",
                "system": "http://snomed.info/sct",
                "version": "http://snomed.info/sct/900000000000207008/version/20230731"
              }
            ]
          }
        ],
        "note": [
          {
            "text": "Radikale Rektumresektion mit totaler mesorektaler Exzision"
          }
        ],
        "performedPeriod": {
          "start": "2022-04-08T07:30:00+02:00",
          "end": "2022-04-08T13:45:00+02:00"
        },
        "extension": [
          {
            "url": "https://www.medizininformatik-initiative.de/fhir/core/modul-prozedur/StructureDefinition/Durchfuehrungsabsicht",
            "valueCoding": {
              "system": "http://snomed.info/sct",
              "code": "262202000",
              "version": "http://snomed.info/sct/900000000000207008/version/20230731",
              "display": "Therapeutic"
            }
          }
        ],
        "status": "completed",
        "subject": {
          "reference": "Patient/mii-exa-test-data-patient-3"
        },
        "encounter": {
          "reference": "Encounter/mii-exa-test-data-patient-3-encounter-1"
        },
        "recorder": {
          "reference": "PractitionerRole/mii-exa-test-data-practitioner-role-physician-1"
        }
      }
    },
    {
      "request": {
        "method": "POST",
        "url": "Procedure"
      },
      "fullUrl": "https://www.medizininformatik-initiative.de/Procedure/mii-exa-test-data-patient-3-prozedur-3",
      "resource": {
        "resourceType": "Procedure",
        "id": "mii-exa-test-data-patient-3-prozedur-3",
        "meta": {
          "profile": [
            "https://www.medizininformatik-initiative.de/fhir/core/modul-prozedur/StructureDefinition/Procedure"
          ]
        },
        "category": {
          "coding": [
            {
              "system": "http://snomed.info/sct",
              "code": "18629005",
              "version": "http://snomed.info/sct/900000000000207008/version/20230731"
            }
          ]
        },
        "code": {
          "coding": [
            {
              "system": "http://snomed.info/sct",
              "code": "724159000",
              "version": "http://snomed.info/sct/900000000000207008/version/20230731"
            },
            {
              "system": "http://fhir.de/CodeSystem/bfarm/ops",
              "code": "6-001.h4",
              "version": "2022"
            }
          ]
        },
        "bodySite": [
          {
            "coding": [
              {
                "code": "734748008",
                "system": "http://snomed.info/sct",
                "version": "http://snomed.info/sct/900000000000207008/version/20230731"
              }
            ]
          }
        ],
        "note": [
          {
            "text": "Adjuvante Chemotherapie mit FOLFOX-Schema"
          }
        ],
        "performedPeriod": {
          "start": "2022-04-25T10:00:00+02:00",
          "end": "2022-07-20T16:00:00+02:00"
        },
        "extension": [
          {
            "url": "https://www.medizininformatik-initiative.de/fhir/core/modul-prozedur/StructureDefinition/Durchfuehrungsabsicht",
            "valueCoding": {
              "system": "http://snomed.info/sct",
              "code": "262202000",
              "version": "http://snomed.info/sct/900000000000207008/version/20230731",
              "display": "Therapeutic"
            }
          }
        ],
        "status": "completed",
        "subject": {
          "reference": "Patient/mii-exa-test-data-patient-3"
        },
        "encounter": {
          "reference": "Encounter/mii-exa-test-data-patient-3-encounter-1"
        },
        "recorder": {
          "reference": "PractitionerRole/mii-exa-test-data-practitioner-role-physician-1"
        }
      }
    },
    {
      "request": {
        "method": "POST",
        "url": "ServiceRequest"
      },
      "fullUrl": "https://www.medizininformatik-initiative.de/ServiceRequest/mii-exa-test-data-patient-3-labrequest-1",
      "resource": {
        "resourceType": "ServiceRequest",
        "id": "mii-exa-test-data-patient-3-labrequest-1",
        "meta": {
          "profile": [
            "https://www.medizininformatik-initiative.de/fhir/core/modul-labor/StructureDefinition/ServiceRequestLab"
          ]
        },
        "identifier": [
          {
            "assigner": {
              "identifier": {
                "system": "https://www.medizininformatik-initiative.de/fhir/core/CodeSystem/core-location-identifier",
                "value": "Charité"
              }
            },
            "type": {
              "coding": [
                {
                  "system": "http://terminology.hl7.org/CodeSystem/v2-0203",
                  "code": "PLAC"
                }
              ]
            },
            "system": "https://www.charite.de/fhir/sid/lab-requests",
            "value": "LAB_000003"
          }
        ],
        "category": [
          {
            "coding": [
              {
                "system": "http://snomed.info/sct",
                "code": "108252007",
                "version": "http://snomed.info/sct/900000000000207008/version/20230731",
                "display": "Laboratory procedure"
              }
            ]
          }
        ],
        "reasonCode": [
          {
            "coding": [
              {
                "code": "235856003",
                "system": "http://snomed.info/sct",
                "version": "http://snomed.info/sct/900000000000207008/version/20230731",
                "display": "Disease of liver"
              }
            ]
          }
        ],
        "specimen": [
          {
            "reference": "Specimen/mii-exa-test-data-patient-3-specimen-2"
          }
        ],
        "status": "completed",
        "intent": "order",
        "code": {
          "coding": [
            {
              "code": "24360-0",
              "system": "http://loinc.org",
              "display": "Hepatic function panel"
            }
          ]
        },
        "subject": {
          "reference": "Patient/mii-exa-test-data-patient-3"
        },
        "encounter": {
          "reference": "Encounter/mii-exa-test-data-patient-3-encounter-1"
        },
        "authoredOn": "2022-04-05T07:30:00+02:00",
        "requester": {
          "reference": "Practitioner/mii-exa-test-data-practitioner-physician-1"
        }
      }
    },
    {
      "request": {
        "method": "POST",
        "url": "DiagnosticReport"
      },
      "fullUrl": "https://www.medizininformatik-initiative.de/DiagnosticReport/mii-exa-test-data-patient-3-labreport-1",
      "resource": {
        "resourceType": "DiagnosticReport",
        "id": "mii-exa-test-data-patient-3-labreport-1",
        "meta": {
          "profile": [
            "https://www.medizininformatik-initiative.de/fhir/core/modul-labor/StructureDefinition/DiagnosticReportLab"
          ]
        },
        "identifier": [
          {
            "assigner": {
              "identifier": {
                "system": "https://www.medizininformatik-initiative.de/fhir/core/CodeSystem/core-location-identifier",
                "value": "Charité"
              }
            },
            "type": {
              "coding": [
                {
                  "system": "http://terminology.hl7.org/CodeSystem/v2-0203",
                  "code": "FILL"
                }
              ]
            },
            "system": "https://www.charite.de/fhir/sid/lab-results",
            "value": "LDR_000003"
          }
        ],
        "category": [
          {
            "coding": [
              {
                "system": "http://loinc.org",
                "code": "26436-6",
                "display": "Laboratory studies (set)"
              },
              {
                "system": "http://terminology.hl7.org/CodeSystem/v2-0074",
                "code": "LAB"
              }
            ]
          }
        ],
        "code": {
          "coding": [
            {
              "system": "http://loinc.org",
              "code": "11502-2",
              "display": "Laboratory report"
            }
          ]
        },
        "basedOn": [
          {
            "reference": "ServiceRequest/mii-exa-test-data-patient-3-labrequest-1"
          }
        ],
        "performer": [
          {
            "reference": "Organization/mii-exa-test-data-organization-labor-berlin"
          }
        ],
        "specimen": [
          {
            "reference": "Specimen/mii-exa-test-data-patient-3-specimen-2"
          },
          {
            "reference": "Specimen/mii-exa-test-data-patient-3-specimen-3"
          }
        ],
        "result": [
          {
            "reference": "Observation/mii-exa-test-data-patient-3-labobs-1"
          },
          {
            "reference": "Observation/mii-exa-test-data-patient-3-labobs-2"
          },
          {
            "reference": "Observation/mii-exa-test-data-patient-3-labobs-3"
          }
        ],
        "status": "final",
        "subject": {
          "reference": "Patient/mii-exa-test-data-patient-3"
        },
        "encounter": {
          "reference": "Encounter/mii-exa-test-data-patient-3-encounter-1"
        },
        "effectiveDateTime": "2022-04-05T08:00:00+02:00",
        "issued": "2022-04-05T13:00:00+02:00",
        "conclusion": "Cholestatisches Leberschädigungsmuster: Erhöhte alkalische Phosphatase (156 U/L) und Hyperbilirubinämie (2,8 mg/dL). Leukozytose (12,5/nL). Vereinbar mit maligner Infiltration bei bekanntem Anorektalkarzinom."
      }
    },
    {
      "request": {
        "method": "POST",
        "url": "Observation"
      },
      "fullUrl": "https://www.medizininformatik-initiative.de/Observation/mii-exa-test-data-patient-3-labobs-1",
      "resource": {
        "resourceType": "Observation",
        "id": "mii-exa-test-data-patient-3-labobs-1",
        "meta": {
          "profile": [
            "https://www.medizininformatik-initiative.de/fhir/core/modul-labor/StructureDefinition/ObservationLab"
          ]
        },
        "identifier": [
          {
            "assigner": {
              "identifier": {
                "system": "https://www.medizininformatik-initiative.de/fhir/core/CodeSystem/core-location-identifier",
                "value": "Charité"
              }
            },
            "type": {
              "coding": [
                {
                  "system": "http://terminology.hl7.org/CodeSystem/v2-0203",
                  "code": "OBI"
                }
              ]
            },
            "system": "https://www.charite.de/fhir/sid/lab-results",
            "value": "LO_000011"
          }
        ],
        "category": [
          {
            "coding": [
              {
                "system": "http://loinc.org",
                "code": "26436-6",
                "display": "Laboratory studies (set)"
              },
              {
                "system": "http://terminology.hl7.org/CodeSystem/observation-category",
                "code": "laboratory",
                "display": "Laboratory"
              }
            ]
          }
        ],
        "basedOn": [
          {
            "reference": "ServiceRequest/mii-exa-test-data-patient-3-labrequest-1"
          }
        ],
        "interpretation": [
          {
            "coding": [
              {
                "code": "H",
                "system": "http://terminology.hl7.org/CodeSystem/v3-ObservationInterpretation",
                "display": "High"
              }
            ]
          }
        ],
        "valueQuantity": {
          "system": "http://unitsofmeasure.org",
          "value": 12.5,
          "code": "/nL",
          "unit": "/nanoliter"
        },
        "status": "final",
        "code": {
          "coding": [
            {
              "code": "26464-8",
              "system": "http://loinc.org",
              "display": "Leukocytes [#/volume] in Blood"
            }
          ]
        },
        "subject": {
          "reference": "Patient/mii-exa-test-data-patient-3"
        },
        "encounter": {
          "reference": "Encounter/mii-exa-test-data-patient-3-encounter-1"
        },
        "effectiveDateTime": "2022-04-05T08:00:00+02:00",
        "issued": "2022-04-05T10:30:00+02:00",
        "method": {
          "coding": [
            {
              "code": "703452004",
              "system": "http://snomed.info/sct",
              "version": "http://snomed.info/sct/900000000000207008/version/20230731",
              "display": "Electrical impedance technique (qualifier value)"
            }
          ]
        },
        "specimen": {
          "reference": "Specimen/mii-exa-test-data-patient-3-specimen-1"
        },
        "device": {
          "reference": "Device/mii-exa-test-data-device-roche-cobas-c303"
        }
      }
    },
    {
      "request": {
        "method": "POST",
        "url": "Observation"
      },
      "fullUrl": "https://www.medizininformatik-initiative.de/Observation/mii-exa-test-data-patient-3-labobs-2",
      "resource": {
        "resourceType": "Observation",
        "id": "mii-exa-test-data-patient-3-labobs-2",
        "meta": {
          "profile": [
            "https://www.medizininformatik-initiative.de/fhir/core/modul-labor/StructureDefinition/ObservationLab"
          ]
        },
        "identifier": [
          {
            "assigner": {
              "identifier": {
                "system": "https://www.medizininformatik-initiative.de/fhir/core/CodeSystem/core-location-identifier",
                "value": "Charité"
              }
            },
            "type": {
              "coding": [
                {
                  "system": "http://terminology.hl7.org/CodeSystem/v2-0203",
                  "code": "OBI"
                }
              ]
            },
            "system": "https://www.charite.de/fhir/sid/lab-results",
            "value": "LO_000012"
          }
        ],
        "category": [
          {
            "coding": [
              {
                "system": "http://loinc.org",
                "code": "26436-6",
                "display": "Laboratory studies (set)"
              },
              {
                "system": "http://terminology.hl7.org/CodeSystem/observation-category",
                "code": "laboratory",
                "display": "Laboratory"
              }
            ]
          }
        ],
        "basedOn": [
          {
            "reference": "ServiceRequest/mii-exa-test-data-patient-3-labrequest-1"
          }
        ],
        "interpretation": [
          {
            "coding": [
              {
                "code": "H",
                "system": "http://terminology.hl7.org/CodeSystem/v3-ObservationInterpretation",
                "display": "High"
              }
            ]
          }
        ],
        "valueQuantity": {
          "system": "http://unitsofmeasure.org",
          "value": 156,
          "code": "U/L",
          "unit": "unit per liter"
        },
        "status": "final",
        "code": {
          "coding": [
            {
              "code": "6768-6",
              "system": "http://loinc.org",
              "display": "Alkaline phosphatase [Enzymatic activity/volume] in Serum or Plasma"
            }
          ]
        },
        "subject": {
          "reference": "Patient/mii-exa-test-data-patient-3"
        },
        "encounter": {
          "reference": "Encounter/mii-exa-test-data-patient-3-encounter-1"
        },
        "effectiveDateTime": "2022-04-05T08:00:00+02:00",
        "issued": "2022-04-05T10:30:00+02:00",
        "method": {
          "coding": [
            {
              "code": "83561000052101",
              "system": "http://snomed.info/sct",
              "version": "http://snomed.info/sct/900000000000207008/version/20230731",
              "display": "Photometry technique (qualifier value)"
            }
          ]
        },
        "specimen": {
          "reference": "Specimen/mii-exa-test-data-patient-3-specimen-1"
        },
        "device": {
          "reference": "Device/mii-exa-test-data-device-roche-cobas-c303"
        }
      }
    },
    {
      "request": {
        "method": "POST",
        "url": "Observation"
      },
      "fullUrl": "https://www.medizininformatik-initiative.de/Observation/mii-exa-test-data-patient-3-labobs-3",
      "resource": {
        "resourceType": "Observation",
        "id": "mii-exa-test-data-patient-3-labobs-3",
        "meta": {
          "profile": [
            "https://www.medizininformatik-initiative.de/fhir/core/modul-labor/StructureDefinition/ObservationLab"
          ]
        },
        "identifier": [
          {
            "assigner": {
              "identifier": {
                "system": "https://www.medizininformatik-initiative.de/fhir/core/CodeSystem/core-location-identifier",
                "value": "Charité"
              }
            },
            "type": {
              "coding": [
                {
                  "system": "http://terminology.hl7.org/CodeSystem/v2-0203",
                  "code": "OBI"
                }
              ]
            },
            "system": "https://www.charite.de/fhir/sid/lab-results",
            "value": "LO_000013"
          }
        ],
        "category": [
          {
            "coding": [
              {
                "system": "http://loinc.org",
                "code": "26436-6",
                "display": "Laboratory studies (set)"
              },
              {
                "system": "http://terminology.hl7.org/CodeSystem/observation-category",
                "code": "laboratory",
                "display": "Laboratory"
              }
            ]
          }
        ],
        "basedOn": [
          {
            "reference": "ServiceRequest/mii-exa-test-data-patient-3-labrequest-1"
          }
        ],
        "interpretation": [
          {
            "coding": [
              {
                "code": "H",
                "system": "http://terminology.hl7.org/CodeSystem/v3-ObservationInterpretation",
                "display": "High"
              }
            ]
          }
        ],
        "valueQuantity": {
          "system": "http://unitsofmeasure.org",
          "value": 2.8,
          "code": "mg/dL",
          "unit": "milligram per deciliter"
        },
        "status": "final",
        "code": {
          "coding": [
            {
              "code": "1975-2",
              "system": "http://loinc.org",
              "display": "Bilirubin.total [Mass/volume] in Serum or Plasma"
            }
          ]
        },
        "subject": {
          "reference": "Patient/mii-exa-test-data-patient-3"
        },
        "encounter": {
          "reference": "Encounter/mii-exa-test-data-patient-3-encounter-1"
        },
        "effectiveDateTime": "2022-04-05T08:00:00+02:00",
        "issued": "2022-04-05T10:30:00+02:00",
        "method": {
          "coding": [
            {
              "code": "83561000052101",
              "system": "http://snomed.info/sct",
              "version": "http://snomed.info/sct/900000000000207008/version/20230731",
              "display": "Photometry technique (qualifier value)"
            }
          ]
        },
        "specimen": {
          "reference": "Specimen/mii-exa-test-data-patient-3-specimen-1"
        },
        "device": {
          "reference": "Device/mii-exa-test-data-device-roche-cobas-c303"
        }
      }
    },
    {
      "request": {
        "method": "POST",
        "url": "MedicationRequest"
      },
      "fullUrl": "https://www.medizininformatik-initiative.de/MedicationRequest/mii-exa-test-data-patient-3-medrequest-1",
      "resource": {
        "resourceType": "MedicationRequest",
        "id": "mii-exa-test-data-patient-3-medrequest-1",
        "meta": {
          "profile": [
            "https://www.medizininformatik-initiative.de/fhir/core/modul-medikation/StructureDefinition/MedicationRequest"
          ]
        },
        "identifier": [
          {
            "system": "https://www.charite.de/fhir/sid/MedicationOrders",
            "value": "MO_0000005"
          }
        ],
        "dosageInstruction": [
          {
            "doseAndRate": [
              {
                "doseRange": {
                  "low": {
                    "system": "http://unitsofmeasure.org",
                    "value": 500,
                    "code": "mg",
                    "unit": "mg"
                  },
                  "high": {
                    "system": "http://unitsofmeasure.org",
                    "value": 1000,
                    "code": "mg",
                    "unit": "mg"
                  }
                }
              }
            ],
            "maxDosePerPeriod": {
              "numerator": {
                "system": "http://unitsofmeasure.org",
                "value": 5000,
                "code": "mg",
                "unit": "mg"
              },
              "denominator": {
                "system": "http://unitsofmeasure.org",
                "value": 24,
                "code": "h",
                "unit": "Stunden"
              }
            },
            "maxDosePerAdministration": {
              "system": "http://unitsofmeasure.org",
              "value": 1000,
              "code": "mg",
              "unit": "mg"
            },
            "text": "Die Einzeldosis 500-1000 mg, Tageshöchstdosis 5000 mg",
            "asNeededBoolean": true,
            "route": {
              "coding": [
                {
                  "code": "20053000",
                  "system": "http://standardterms.edqm.eu",
                  "display": "Oral use"
                }
              ]
            }
          }
        ],
        "substitution": {
          "allowedBoolean": true
        },
        "status": "active",
        "intent": "order",
        "medicationReference": {
          "reference": "Medication/mii-exa-test-data-medication-metamizol"
        },
        "subject": {
          "reference": "Patient/mii-exa-test-data-patient-3"
        },
        "encounter": {
          "reference": "Encounter/mii-exa-test-data-patient-3-encounter-1"
        },
        "authoredOn": "2022-04-12T11:32:00+01:00"
      }
    },
    {
      "request": {
        "method": "POST",
        "url": "MedicationRequest"
      },
      "fullUrl": "https://www.medizininformatik-initiative.de/MedicationRequest/mii-exa-test-data-patient-3-medrequest-2",
      "resource": {
        "resourceType": "MedicationRequest",
        "id": "mii-exa-test-data-patient-3-medrequest-2",
        "meta": {
          "profile": [
            "https://www.medizininformatik-initiative.de/fhir/core/modul-medikation/StructureDefinition/MedicationRequest"
          ]
        },
        "identifier": [
          {
            "system": "https://www.charite.de/fhir/sid/MedicationOrders",
            "value": "MO_0000009"
          }
        ],
        "dosageInstruction": [
          {
            "doseAndRate": [
              {
                "rateRatio": {
                  "numerator": {
                    "system": "http://unitsofmeasure.org",
                    "value": 1000,
                    "code": "mg",
                    "unit": "mg"
                  },
                  "denominator": {
                    "system": "http://unitsofmeasure.org",
                    "value": 46,
                    "code": "h",
                    "unit": "h"
                  }
                },
                "doseQuantity": {
                  "value": 1000,
                  "code": "mg",
                  "system": "http://unitsofmeasure.org",
                  "unit": "mg"
                }
              }
            ],
            "text": "5-FU 1000mg/m² IV über 46 Stunden",
            "route": {
              "coding": [
                {
                  "code": "20045000",
                  "system": "http://standardterms.edqm.eu",
                  "display": "Intravenous use"
                }
              ]
            }
          }
        ],
        "substitution": {
          "allowedBoolean": false
        },
        "status": "active",
        "intent": "order",
        "medicationReference": {
          "reference": "Medication/mii-exa-test-data-medication-5-fluorouracil"
        },
        "subject": {
          "reference": "Patient/mii-exa-test-data-patient-3"
        },
        "encounter": {
          "reference": "Encounter/mii-exa-test-data-patient-3-encounter-1"
        },
        "authoredOn": "2022-04-25T09:00:00+02:00"
      }
    },
    {
      "request": {
        "method": "POST",
        "url": "MedicationRequest"
      },
      "fullUrl": "https://www.medizininformatik-initiative.de/MedicationRequest/mii-exa-test-data-patient-3-medrequest-3",
      "resource": {
        "resourceType": "MedicationRequest",
        "id": "mii-exa-test-data-patient-3-medrequest-3",
        "meta": {
          "profile": [
            "https://www.medizininformatik-initiative.de/fhir/core/modul-medikation/StructureDefinition/MedicationRequest"
          ]
        },
        "identifier": [
          {
            "system": "https://www.charite.de/fhir/sid/MedicationOrders",
            "value": "MO_0000010"
          }
        ],
        "dosageInstruction": [
          {
            "doseAndRate": [
              {
                "rateRatio": {
                  "numerator": {
                    "system": "http://unitsofmeasure.org",
                    "value": 85,
                    "code": "mg",
                    "unit": "mg"
                  },
                  "denominator": {
                    "system": "http://unitsofmeasure.org",
                    "value": 2,
                    "code": "h",
                    "unit": "h"
                  }
                },
                "doseQuantity": {
                  "value": 85,
                  "code": "mg",
                  "system": "http://unitsofmeasure.org",
                  "unit": "mg"
                }
              }
            ],
            "text": "Oxaliplatin 85mg/m² IV über 2 Stunden",
            "route": {
              "coding": [
                {
                  "code": "20045000",
                  "system": "http://standardterms.edqm.eu",
                  "display": "Intravenous use"
                }
              ]
            }
          }
        ],
        "substitution": {
          "allowedBoolean": false
        },
        "status": "active",
        "intent": "order",
        "medicationReference": {
          "reference": "Medication/mii-exa-test-data-medication-oxaliplatin"
        },
        "subject": {
          "reference": "Patient/mii-exa-test-data-patient-3"
        },
        "encounter": {
          "reference": "Encounter/mii-exa-test-data-patient-3-encounter-1"
        },
        "authoredOn": "2022-04-25T09:30:00+02:00"
      }
    },
    {
      "request": {
        "method": "POST",
        "url": "MedicationStatement"
      },
      "fullUrl": "https://www.medizininformatik-initiative.de/MedicationStatement/mii-exa-test-data-patient-3-medstatement-1",
      "resource": {
        "resourceType": "MedicationStatement",
        "id": "mii-exa-test-data-patient-3-medstatement-1",
        "meta": {
          "profile": [
            "https://www.medizininformatik-initiative.de/fhir/core/modul-medikation/StructureDefinition/MedicationStatement"
          ]
        },
        "identifier": [
          {
            "system": "https://www.charite.de/fhir/sid/MedicationStatements",
            "value": "MS_0000006"
          }
        ],
        "basedOn": [
          {
            "reference": "MedicationRequest/mii-exa-test-data-patient-3-medrequest-1"
          }
        ],
        "category": {
          "coding": [
            {
              "system": "http://terminology.hl7.org/CodeSystem/medication-statement-category",
              "code": "inpatient"
            },
            {
              "system": "http://ihe-d.de/CodeSystems/FallkontextBeiDokumentenerstellung",
              "code": "E200",
              "display": "stationärer Aufenthalt"
            }
          ]
        },
        "effectivePeriod": {
          "start": "2022-04-12T11:32:00+01:00"
        },
        "dosage": [
          {
            "route": {
              "coding": [
                {
                  "system": "http://standardterms.edqm.eu",
                  "code": "20053000",
                  "display": "Oral use"
                }
              ]
            },
            "doseAndRate": [
              {
                "doseRange": {
                  "low": {
                    "system": "http://unitsofmeasure.org",
                    "value": 500,
                    "code": "mg",
                    "unit": "mg"
                  },
                  "high": {
                    "system": "http://unitsofmeasure.org",
                    "value": 1000,
                    "code": "mg",
                    "unit": "mg"
                  }
                }
              }
            ],
            "maxDosePerPeriod": {
              "numerator": {
                "system": "http://unitsofmeasure.org",
                "value": 5000,
                "code": "mg",
                "unit": "mg"
              },
              "denominator": {
                "system": "http://unitsofmeasure.org",
                "value": 24,
                "code": "h",
                "unit": "Stunden"
              }
            },
            "maxDosePerAdministration": {
              "system": "http://unitsofmeasure.org",
              "value": 1000,
              "code": "mg",
              "unit": "mg"
            },
            "asNeededBoolean": true
          }
        ],
        "status": "unknown",
        "medicationReference": {
          "reference": "Medication/mii-exa-test-data-medication-metamizol"
        },
        "subject": {
          "reference": "Patient/mii-exa-test-data-patient-3"
        },
        "context": {
          "reference": "Encounter/mii-exa-test-data-patient-3-encounter-1"
        },
        "dateAsserted": "2022-04-12"
      }
    },
    {
      "request": {
        "method": "POST",
        "url": "MedicationStatement"
      },
      "fullUrl": "https://www.medizininformatik-initiative.de/MedicationStatement/mii-exa-test-data-patient-3-medstatement-2",
      "resource": {
        "resourceType": "MedicationStatement",
        "id": "mii-exa-test-data-patient-3-medstatement-2",
        "meta": {
          "profile": [
            "https://www.medizininformatik-initiative.de/fhir/core/modul-medikation/StructureDefinition/MedicationStatement"
          ]
        },
        "identifier": [
          {
            "system": "https://www.charite.de/fhir/sid/MedicationStatements",
            "value": "MS_0000010"
          }
        ],
        "basedOn": [
          {
            "reference": "MedicationRequest/mii-exa-test-data-patient-3-medrequest-2"
          }
        ],
        "category": {
          "coding": [
            {
              "system": "http://terminology.hl7.org/CodeSystem/medication-statement-category",
              "code": "inpatient"
            },
            {
              "system": "http://ihe-d.de/CodeSystems/FallkontextBeiDokumentenerstellung",
              "code": "E200",
              "display": "stationärer Aufenthalt"
            }
          ]
        },
        "effectivePeriod": {
          "start": "2022-04-25T09:00:00+02:00",
          "end": "2022-04-27T07:00:00+02:00"
        },
        "dosage": [
          {
            "route": {
              "coding": [
                {
                  "system": "http://standardterms.edqm.eu",
                  "code": "20045000",
                  "display": "Intravenous use"
                }
              ]
            },
            "doseAndRate": [
              {
                "rateRatio": {
                  "numerator": {
                    "system": "http://unitsofmeasure.org",
                    "value": 1000,
                    "code": "mg",
                    "unit": "mg"
                  },
                  "denominator": {
                    "system": "http://unitsofmeasure.org",
                    "value": 46,
                    "code": "h",
                    "unit": "h"
                  }
                },
                "doseQuantity": {
                  "system": "http://unitsofmeasure.org",
                  "value": 1000,
                  "code": "mg",
                  "unit": "mg"
                }
              }
            ],
            "text": "5-FU 1000mg/m² IV über 46 Stunden"
          }
        ],
        "status": "completed",
        "medicationReference": {
          "reference": "Medication/mii-exa-test-data-medication-5-fluorouracil"
        },
        "subject": {
          "reference": "Patient/mii-exa-test-data-patient-3"
        },
        "context": {
          "reference": "Encounter/mii-exa-test-data-patient-3-encounter-1"
        },
        "dateAsserted": "2022-04-25"
      }
    },
    {
      "request": {
        "method": "POST",
        "url": "MedicationStatement"
      },
      "fullUrl": "https://www.medizininformatik-initiative.de/MedicationStatement/mii-exa-test-data-patient-3-medstatement-3",
      "resource": {
        "resourceType": "MedicationStatement",
        "id": "mii-exa-test-data-patient-3-medstatement-3",
        "meta": {
          "profile": [
            "https://www.medizininformatik-initiative.de/fhir/core/modul-medikation/StructureDefinition/MedicationStatement"
          ]
        },
        "identifier": [
          {
            "system": "https://www.charite.de/fhir/sid/MedicationStatements",
            "value": "MS_0000011"
          }
        ],
        "basedOn": [
          {
            "reference": "MedicationRequest/mii-exa-test-data-patient-3-medrequest-3"
          }
        ],
        "category": {
          "coding": [
            {
              "system": "http://terminology.hl7.org/CodeSystem/medication-statement-category",
              "code": "inpatient"
            },
            {
              "system": "http://ihe-d.de/CodeSystems/FallkontextBeiDokumentenerstellung",
              "code": "E200",
              "display": "stationärer Aufenthalt"
            }
          ]
        },
        "effectivePeriod": {
          "start": "2022-04-25T09:30:00+02:00",
          "end": "2022-04-25T11:30:00+02:00"
        },
        "dosage": [
          {
            "route": {
              "coding": [
                {
                  "system": "http://standardterms.edqm.eu",
                  "code": "20045000",
                  "display": "Intravenous use"
                }
              ]
            },
            "doseAndRate": [
              {
                "rateRatio": {
                  "numerator": {
                    "system": "http://unitsofmeasure.org",
                    "value": 85,
                    "code": "mg",
                    "unit": "mg"
                  },
                  "denominator": {
                    "system": "http://unitsofmeasure.org",
                    "value": 2,
                    "code": "h",
                    "unit": "h"
                  }
                },
                "doseQuantity": {
                  "system": "http://unitsofmeasure.org",
                  "value": 85,
                  "code": "mg",
                  "unit": "mg"
                }
              }
            ],
            "text": "Oxaliplatin 85mg/m² IV über 2 Stunden"
          }
        ],
        "status": "completed",
        "medicationReference": {
          "reference": "Medication/mii-exa-test-data-medication-oxaliplatin"
        },
        "subject": {
          "reference": "Patient/mii-exa-test-data-patient-3"
        },
        "context": {
          "reference": "Encounter/mii-exa-test-data-patient-3-encounter-1"
        },
        "dateAsserted": "2022-04-25"
      }
    },
    {
      "request": {
        "method": "POST",
        "url": "MedicationStatement"
      },
      "fullUrl": "https://www.medizininformatik-initiative.de/MedicationStatement/mii-exa-test-data-patient-3-medstatement-4",
      "resource": {
        "resourceType": "MedicationStatement",
        "id": "mii-exa-test-data-patient-3-medstatement-4",
        "meta": {
          "profile": [
            "https://www.medizininformatik-initiative.de/fhir/core/modul-medikation/StructureDefinition/MedicationStatement"
          ]
        },
        "identifier": [
          {
            "system": "https://www.charite.de/fhir/sid/MedicationStatements",
            "value": "MS_0000026"
          }
        ],
        "category": {
          "coding": [
            {
              "system": "http://terminology.hl7.org/CodeSystem/medication-statement-category",
              "code": "inpatient"
            },
            {
              "system": "http://ihe-d.de/CodeSystems/FallkontextBeiDokumentenerstellung",
              "code": "E200",
              "display": "stationärer Aufenthalt"
            }
          ]
        },
        "effectivePeriod": {
          "start": "2022-04-14T13:43:00+01:00",
          "end": "2022-04-14T14:43:00+01:00"
        },
        "dosage": [
          {
            "doseAndRate": [
              {
                "doseQuantity": {
                  "system": "http://unitsofmeasure.org",
                  "value": 50,
                  "code": "mg/kg",
                  "unit": "mg/kilogram"
                }
              }
            ],
            "timing": {
              "repeat": {
                "frequency": 1,
                "period": 4,
                "periodUnit": "wk"
              }
            },
            "route": {
              "coding": [
                {
                  "code": "20045000",
                  "system": "http://standardterms.edqm.eu",
                  "display": "Intravenous use"
                }
              ]
            },
            "text": "Doxorubicin (Caelyx) 50 mg je Quadratmeter Koerperoberflaeche alle vier Wochen per intravenoeser Tropfinfusion"
          }
        ],
        "status": "completed",
        "medicationReference": {
          "reference": "Medication/mii-exa-test-data-medication-rezeptur-doxorubicin"
        },
        "subject": {
          "reference": "Patient/mii-exa-test-data-patient-3"
        },
        "context": {
          "reference": "Encounter/mii-exa-test-data-patient-3-encounter-1"
        },
        "dateAsserted": "2022-04-14"
      }
    },
    {
      "request": {
        "method": "POST",
        "url": "MedicationAdministration"
      },
      "fullUrl": "https://www.medizininformatik-initiative.de/MedicationAdministration/mii-exa-test-data-patient-3-medadmin-1",
      "resource": {
        "resourceType": "MedicationAdministration",
        "id": "mii-exa-test-data-patient-3-medadmin-1",
        "meta": {
          "profile": [
            "https://www.medizininformatik-initiative.de/fhir/core/modul-medikation/StructureDefinition/MedicationAdministration"
          ]
        },
        "identifier": [
          {
            "system": "https://www.charite.de/fhir/sid/MedicationAdministrations",
            "value": "MA_0000006"
          }
        ],
        "dosage": {
          "route": {
            "coding": [
              {
                "system": "http://standardterms.edqm.eu",
                "code": "20053000",
                "display": "Oral use"
              }
            ]
          },
          "dose": {
            "system": "http://unitsofmeasure.org",
            "value": 500,
            "code": "mg",
            "unit": "mg"
          },
          "text": "Metamizol 500mg oral bei Schmerzen"
        },
        "status": "completed",
        "category": {
          "coding": [
            {
              "code": "inpatient",
              "system": "http://terminology.hl7.org/CodeSystem/medication-admin-category",
              "display": "Inpatient"
            }
          ]
        },
        "medicationReference": {
          "reference": "Medication/mii-exa-test-data-medication-metamizol"
        },
        "subject": {
          "reference": "Patient/mii-exa-test-data-patient-3"
        },
        "context": {
          "reference": "Encounter/mii-exa-test-data-patient-3-encounter-1"
        },
        "effectiveDateTime": "2022-04-12T14:00:00+02:00",
        "request": {
          "reference": "MedicationRequest/mii-exa-test-data-patient-3-medrequest-1"
        }
      }
    },
    {
      "request": {
        "method": "POST",
        "url": "MedicationAdministration"
      },
      "fullUrl": "https://www.medizininformatik-initiative.de/MedicationAdministration/mii-exa-test-data-patient-3-medadmin-2",
      "resource": {
        "resourceType": "MedicationAdministration",
        "id": "mii-exa-test-data-patient-3-medadmin-2",
        "meta": {
          "profile": [
            "https://www.medizininformatik-initiative.de/fhir/core/modul-medikation/StructureDefinition/MedicationAdministration"
          ]
        },
        "identifier": [
          {
            "system": "https://www.charite.de/fhir/sid/MedicationAdministrations",
            "value": "MA_0000007"
          }
        ],
        "effectivePeriod": {
          "start": "2022-04-25T09:00:00+02:00",
          "end": "2022-04-27T07:00:00+02:00"
        },
        "dosage": {
          "route": {
            "coding": [
              {
                "system": "http://standardterms.edqm.eu",
                "code": "20045000",
                "display": "Intravenous use"
              }
            ]
          },
          "rateRatio": {
            "numerator": {
              "system": "http://unitsofmeasure.org",
              "value": 1000,
              "code": "mg",
              "unit": "mg"
            },
            "denominator": {
              "system": "http://unitsofmeasure.org",
              "value": 46,
              "code": "h",
              "unit": "h"
            }
          },
          "dose": {
            "system": "http://unitsofmeasure.org",
            "value": 1000,
            "code": "mg",
            "unit": "mg"
          },
          "text": "5-FU 1000mg IV über 46 Stunden"
        },
        "status": "completed",
        "category": {
          "coding": [
            {
              "code": "inpatient",
              "system": "http://terminology.hl7.org/CodeSystem/medication-admin-category",
              "display": "Inpatient"
            }
          ]
        },
        "medicationReference": {
          "reference": "Medication/mii-exa-test-data-medication-5-fluorouracil"
        },
        "subject": {
          "reference": "Patient/mii-exa-test-data-patient-3"
        },
        "context": {
          "reference": "Encounter/mii-exa-test-data-patient-3-encounter-1"
        },
        "request": {
          "reference": "MedicationRequest/mii-exa-test-data-patient-3-medrequest-2"
        }
      }
    },
    {
      "request": {
        "method": "POST",
        "url": "MedicationAdministration"
      },
      "fullUrl": "https://www.medizininformatik-initiative.de/MedicationAdministration/mii-exa-test-data-patient-3-medadmin-3",
      "resource": {
        "resourceType": "MedicationAdministration",
        "id": "mii-exa-test-data-patient-3-medadmin-3",
        "meta": {
          "profile": [
            "https://www.medizininformatik-initiative.de/fhir/core/modul-medikation/StructureDefinition/MedicationAdministration"
          ]
        },
        "identifier": [
          {
            "system": "https://www.charite.de/fhir/sid/MedicationAdministrations",
            "value": "MA_0000008"
          }
        ],
        "effectivePeriod": {
          "start": "2022-04-25T09:30:00+02:00",
          "end": "2022-04-25T11:30:00+02:00"
        },
        "dosage": {
          "route": {
            "coding": [
              {
                "system": "http://standardterms.edqm.eu",
                "code": "20045000",
                "display": "Intravenous use"
              }
            ]
          },
          "rateRatio": {
            "numerator": {
              "system": "http://unitsofmeasure.org",
              "value": 85,
              "code": "mg",
              "unit": "mg"
            },
            "denominator": {
              "system": "http://unitsofmeasure.org",
              "value": 2,
              "code": "h",
              "unit": "h"
            }
          },
          "dose": {
            "system": "http://unitsofmeasure.org",
            "value": 85,
            "code": "mg",
            "unit": "mg"
          },
          "text": "Oxaliplatin 85mg IV über 2 Stunden"
        },
        "status": "completed",
        "category": {
          "coding": [
            {
              "code": "inpatient",
              "system": "http://terminology.hl7.org/CodeSystem/medication-admin-category",
              "display": "Inpatient"
            }
          ]
        },
        "medicationReference": {
          "reference": "Medication/mii-exa-test-data-medication-oxaliplatin"
        },
        "subject": {
          "reference": "Patient/mii-exa-test-data-patient-3"
        },
        "context": {
          "reference": "Encounter/mii-exa-test-data-patient-3-encounter-1"
        },
        "request": {
          "reference": "MedicationRequest/mii-exa-test-data-patient-3-medrequest-3"
        }
      }
    },
    {
      "request": {
        "method": "POST",
        "url": "List"
      },
      "fullUrl": "https://www.medizininformatik-initiative.de/List/mii-exa-test-data-patient-3-list-stat-aufenthalt",
      "resource": {
        "resourceType": "List",
        "id": "mii-exa-test-data-patient-3-list-stat-aufenthalt",
        "meta": {
          "profile": [
            "https://www.medizininformatik-initiative.de/fhir/core/modul-medikation/StructureDefinition/medikationsliste"
          ]
        },
        "code": {
          "coding": [
            {
              "system": "http://terminology.hl7.org/CodeSystem/list-example-use-codes",
              "code": "medications"
            },
            {
              "system": "http://ihe-d.de/CodeSystems/FallkontextBeiDokumentenerstellung",
              "code": "E200"
            }
          ]
        },
        "entry": [
          {
            "item": {
              "reference": "MedicationStatement/mii-exa-test-data-patient-3-medstatement-1"
            }
          },
          {
            "item": {
              "reference": "MedicationStatement/mii-exa-test-data-patient-3-medstatement-2"
            }
          },
          {
            "item": {
              "reference": "MedicationStatement/mii-exa-test-data-patient-3-medstatement-3"
            }
          }
        ],
        "status": "current",
        "mode": "working",
        "title": "Medikationsliste während stationärem Aufenthalt",
        "subject": {
          "reference": "Patient/mii-exa-test-data-patient-3"
        }
      }
    },
    {
      "request": {
        "method": "POST",
        "url": "Medication"
      },
      "fullUrl": "https://www.medizininformatik-initiative.de/Medication/mii-exa-test-data-medication-metamizol",
      "resource": {
        "resourceType": "Medication",
        "id": "mii-exa-test-data-medication-metamizol",
        "meta": {
          "profile": [
            "https://www.medizininformatik-initiative.de/fhir/core/modul-medikation/StructureDefinition/Medication"
          ]
        },
        "code": {
          "coding": [
            {
              "system": "http://fhir.de/CodeSystem/ifa/pzn",
              "code": "00651306",
              "display": "Metamizol HEXAL® 500 mg"
            },
            {
              "system": "http://fhir.de/CodeSystem/bfarm/atc",
              "code": "N02BB02",
              "version": "2023",
              "display": "Metamizol-Natrium"
            }
          ]
        },
        "form": {
          "coding": [
            {
              "system": "http://standardterms.edqm.eu",
              "code": "10221000",
              "display": "Film-coated tablet"
            }
          ]
        },
        "ingredient": [
          {
            "itemCodeableConcept": {
              "coding": [
                {
                  "system": "http://fhir.de/CodeSystem/ask",
                  "code": "12915",
                  "display": "Metamizol-Natrium"
                }
              ]
            },
            "strength": {
              "numerator": {
                "value": 500,
                "code": "mg",
                "system": "http://unitsofmeasure.org",
                "unit": "milligram"
              },
              "denominator": {
                "value": 1,
                "code": "10221000",
                "system": "http://standardterms.edqm.eu",
                "unit": "Film-coated tablet"
              }
            }
          }
        ]
      }
    },
    {
      "request": {
        "method": "POST",
        "url": "Medication"
      },
      "fullUrl": "https://www.medizininformatik-initiative.de/Medication/mii-exa-test-data-medication-rezeptur-doxorubicin",
      "resource": {
        "resourceType": "Medication",
        "id": "mii-exa-test-data-medication-rezeptur-doxorubicin",
        "meta": {
          "profile": [
            "https://www.medizininformatik-initiative.de/fhir/core/modul-medikation/StructureDefinition/Medication"
          ]
        },
        "code": {
          "text": "Infusion bestehend aus 85mg Doxorubicin aufgeloest zur Verabreichung in 250ml 5-%iger (50 mg/ml) Glucose-Infusionsloesung"
        },
        "ingredient": [
          {
            "strength": {
              "denominator": {
                "value": 250,
                "code": "mL",
                "system": "http://unitsofmeasure.org",
                "unit": "milliliter"
              },
              "numerator": {
                "value": 85,
                "code": "mg",
                "system": "http://unitsofmeasure.org",
                "unit": "mg"
              }
            },
            "isActive": true,
            "itemCodeableConcept": {
              "coding": [
                {
                  "code": "L01DB01",
                  "system": "http://fhir.de/CodeSystem/bfarm/atc",
                  "version": "2023",
                  "display": "Doxorubicin"
                }
              ]
            }
          },
          {
            "isActive": true,
            "itemReference": {
              "reference": "Medication/mii-exa-test-data-medication-glucoseloesung"
            }
          }
        ],
        "form": {
          "coding": [
            {
              "code": "11210000",
              "system": "http://standardterms.edqm.eu",
              "display": "Solution for infusion"
            }
          ]
        },
        "status": "active"
      }
    },
    {
      "request": {
        "method": "POST",
        "url": "Medication"
      },
      "fullUrl": "https://www.medizininformatik-initiative.de/Medication/mii-exa-test-data-medication-glucoseloesung",
      "resource": {
        "resourceType": "Medication",
        "id": "mii-exa-test-data-medication-glucoseloesung",
        "meta": {
          "profile": [
            "https://www.medizininformatik-initiative.de/fhir/core/modul-medikation/StructureDefinition/Medication"
          ]
        },
        "code": {
          "coding": [
            {
              "code": "03705422",
              "system": "http://fhir.de/CodeSystem/ifa/pzn",
              "display": "Glucose 5% B.braun Ecoflac Plus"
            },
            {
              "code": "V06DC01",
              "system": "http://fhir.de/CodeSystem/bfarm/atc",
              "version": "2023",
              "display": "Glucose"
            },
            {
              "code": "V06DC01",
              "system": "http://www.whocc.no/atc",
              "version": "2023",
              "display": "glucose"
            }
          ]
        },
        "ingredient": [
          {
            "itemCodeableConcept": {
              "coding": [
                {
                  "code": "12829",
                  "system": "http://fhir.de/CodeSystem/ask",
                  "display": "Glucose"
                },
                {
                  "code": "50-99-7",
                  "system": "urn:oid:2.16.840.1.113883.6.61",
                  "display": "Glucose"
                },
                {
                  "code": "5SL0G7R0OK",
                  "system": "http://fdasis.nlm.nih.gov",
                  "display": "ANHYDROUS DEXTROSE"
                },
                {
                  "code": "67079006",
                  "system": "http://snomed.info/sct",
                  "version": "http://snomed.info/sct/900000000000207008/version/20230731",
                  "display": "Glucose (substance)"
                }
              ]
            },
            "strength": {
              "denominator": {
                "value": 1000,
                "code": "ml",
                "system": "http://unitsofmeasure.org",
                "unit": "ml"
              },
              "numerator": {
                "value": 50,
                "code": "g",
                "system": "http://unitsofmeasure.org",
                "unit": "g"
              }
            },
            "isActive": true
          },
          {
            "itemCodeableConcept": {
              "coding": [
                {
                  "code": "00343",
                  "system": "http://fhir.de/CodeSystem/ask",
                  "display": "Wasser für Injektionszwecke"
                },
                {
                  "code": "7732-18-5",
                  "system": "urn:oid:2.16.840.1.113883.6.61",
                  "display": "WATER"
                },
                {
                  "code": "059QF0KO0R",
                  "system": "http://fdasis.nlm.nih.gov",
                  "display": "WATER"
                },
                {
                  "code": "11713004",
                  "system": "http://snomed.info/sct",
                  "version": "http://snomed.info/sct/900000000000207008/version/20230731",
                  "display": "Water (substance)"
                }
              ]
            },
            "isActive": false
          }
        ],
        "form": {
          "coding": [
            {
              "code": "11210000",
              "system": "http://standardterms.edqm.eu",
              "display": "Solution for infusion"
            }
          ]
        },
        "status": "active"
      }
    },
    {
      "request": {
        "method": "POST",
        "url": "Medication"
      },
      "fullUrl": "https://www.medizininformatik-initiative.de/Medication/mii-exa-test-data-medication-5-fluorouracil",
      "resource": {
        "resourceType": "Medication",
        "id": "mii-exa-test-data-medication-5-fluorouracil",
        "meta": {
          "profile": [
            "https://www.medizininformatik-initiative.de/fhir/core/modul-medikation/StructureDefinition/Medication"
          ]
        },
        "code": {
          "coding": [
            {
              "system": "http://fhir.de/CodeSystem/bfarm/atc",
              "code": "L01BC02",
              "version": "2024",
              "display": "Fluorouracil"
            }
          ]
        },
        "ingredient": [
          {
            "itemCodeableConcept": {
              "coding": [
                {
                  "system": "http://fhir.de/CodeSystem/ask",
                  "code": "00836",
                  "display": "5-Fluorouracil"
                }
              ]
            },
            "strength": {
              "numerator": {
                "value": 1000,
                "code": "mg",
                "system": "http://unitsofmeasure.org",
                "unit": "mg"
              },
              "denominator": {
                "value": 20,
                "code": "ml",
                "system": "http://unitsofmeasure.org",
                "unit": "ml"
              }
            }
          }
        ],
        "form": {
          "coding": [
            {
              "code": "11210000",
              "system": "http://standardterms.edqm.eu",
              "display": "Solution for infusion"
            }
          ]
        },
        "status": "active"
      }
    },
    {
      "request": {
        "method": "POST",
        "url": "Medication"
      },
      "fullUrl": "https://www.medizininformatik-initiative.de/Medication/mii-exa-test-data-medication-oxaliplatin",
      "resource": {
        "resourceType": "Medication",
        "id": "mii-exa-test-data-medication-oxaliplatin",
        "meta": {
          "profile": [
            "https://www.medizininformatik-initiative.de/fhir/core/modul-medikation/StructureDefinition/Medication"
          ]
        },
        "code": {
          "coding": [
            {
              "system": "http://fhir.de/CodeSystem/bfarm/atc",
              "code": "L01XA03",
              "version": "2024",
              "display": "Oxaliplatin"
            }
          ]
        },
        "ingredient": [
          {
            "itemCodeableConcept": {
              "coding": [
                {
                  "system": "http://fhir.de/CodeSystem/ask",
                  "code": "02043",
                  "display": "Oxaliplatin"
                }
              ]
            },
            "strength": {
              "numerator": {
                "value": 85,
                "code": "mg",
                "system": "http://unitsofmeasure.org",
                "unit": "mg"
              },
              "denominator": {
                "value": 17,
                "code": "ml",
                "system": "http://unitsofmeasure.org",
                "unit": "ml"
              }
            }
          }
        ],
        "form": {
          "coding": [
            {
              "code": "11210000",
              "system": "http://standardterms.edqm.eu",
              "display": "Solution for infusion"
            }
          ]
        },
        "status": "active"
      }
    },
    {
      "request": {
        "method": "POST",
        "url": "ServiceRequest"
      },
      "fullUrl": "https://www.medizininformatik-initiative.de/ServiceRequest/mii-exa-test-data-patient-3-molgen-anforderung-1",
      "resource": {
        "resourceType": "ServiceRequest",
        "id": "mii-exa-test-data-patient-3-molgen-anforderung-1",
        "meta": {
          "profile": [
            "https://www.medizininformatik-initiative.de/fhir/ext/modul-molgen/StructureDefinition/anforderung-genetischer-test"
          ]
        },
        "category": [
          {
            "coding": [
              {
                "code": "108252007",
                "system": "http://snomed.info/sct",
                "version": "http://snomed.info/sct/900000000000207008/version/20230731",
                "display": "Laboratory procedure (procedure)"
              }
            ]
          }
        ],
        "code": {
          "coding": [
            {
              "code": "405825005",
              "system": "http://snomed.info/sct",
              "version": "http://snomed.info/sct/900000000000207008/version/20230731",
              "display": "Molecular genetic test (procedure)"
            },
            {
              "code": "53844-7",
              "system": "http://loinc.org",
              "display": "BRAF gene targeted mutation analysis in Blood or Tissue by Molecular genetics method"
            },
            {
              "code": "HGNC:1097",
              "system": "http://www.genenames.org/geneId",
              "display": "BRAF"
            }
          ],
          "text": "BRAF: Exon 15 (Codon 600)"
        },
        "reasonCode": [
          {
            "coding": [
              {
                "code": "447886005",
                "system": "http://snomed.info/sct",
                "version": "http://snomed.info/sct/900000000000207008/version/20230731",
                "display": "Adenocarcinoma of anorectum (disorder)"
              }
            ]
          }
        ],
        "specimen": [
          {
            "reference": "Specimen/mii-exa-test-data-patient-3-specimen-1"
          }
        ],
        "supportingInfo": [
          {
            "reference": "FamilyMemberHistory/mii-exa-test-data-patient-3-molgen-family-member-history-1"
          }
        ],
        "status": "active",
        "intent": "order",
        "subject": {
          "reference": "Patient/mii-exa-test-data-patient-3"
        },
        "authoredOn": "2022-04-07"
      }
    },
    {
      "request": {
        "method": "POST",
        "url": "DiagnosticReport"
      },
      "fullUrl": "https://www.medizininformatik-initiative.de/DiagnosticReport/mii-exa-test-data-patient-3-molgen-befundbericht-1",
      "resource": {
        "resourceType": "DiagnosticReport",
        "id": "mii-exa-test-data-patient-3-molgen-befundbericht-1",
        "meta": {
          "profile": [
            "https://www.medizininformatik-initiative.de/fhir/ext/modul-molgen/StructureDefinition/molekulargenetischer-befundbericht",
            "http://hl7.org/fhir/uv/genomics-reporting/StructureDefinition/genomics-report"
          ]
        },
        "extension": [
          {
            "url": "http://hl7.org/fhir/uv/genomics-reporting/StructureDefinition/recommended-action",
            "valueReference": {
              "reference": "Task/mii-exa-test-data-patient-3-molgen-medikationsempfehlung-1"
            }
          },
          {
            "url": "http://hl7.org/fhir/uv/genomics-reporting/StructureDefinition/recommended-action",
            "valueReference": {
              "reference": "Task/mii-exa-test-data-patient-3-molgen-folgemassnahme-1"
            }
          },
          {
            "url": "http://hl7.org/fhir/StructureDefinition/workflow-supportingInfo",
            "valueReference": {
              "reference": "FamilyMemberHistory/mii-exa-test-data-patient-3-molgen-family-member-history-1"
            }
          }
        ],
        "basedOn": [
          {
            "reference": "ServiceRequest/mii-exa-test-data-patient-3-molgen-anforderung-1"
          }
        ],
        "category": [
          {
            "coding": [
              {
                "system": "http://terminology.hl7.org/CodeSystem/v2-0074",
                "code": "GE",
                "display": "Genetics"
              }
            ]
          }
        ],
        "specimen": [
          {
            "reference": "Specimen/mii-exa-test-data-patient-3-specimen-1"
          }
        ],
        "result": [
          {
            "reference": "Observation/mii-exa-test-data-patient-3-molgen-ergebnis-zusammenfassung-1"
          },
          {
            "reference": "Observation/mii-exa-test-data-patient-3-molgen-diagnostische-implikation-1"
          },
          {
            "reference": "Observation/mii-exa-test-data-patient-3-molgen-therapeutische-implikation-1"
          },
          {
            "reference": "Observation/mii-exa-test-data-patient-3-molgen-variante-1"
          },
          {
            "reference": "Observation/mii-exa-test-data-patient-3-molgen-untersuchte-region-1"
          },
          {
            "reference": "Observation/mii-exa-test-data-patient-3-molgen-genotyp-1"
          },
          {
            "reference": "Observation/mii-exa-test-data-patient-3-molgen-mutationslast-1"
          },
          {
            "reference": "Observation/mii-exa-test-data-patient-3-molgen-msi-1"
          }
        ],
        "status": "final",
        "code": {
          "coding": [
            {
              "code": "51969-4",
              "system": "http://loinc.org",
              "display": "Genetic analysis report"
            }
          ]
        },
        "subject": {
          "reference": "Patient/mii-exa-test-data-patient-3"
        },
        "conclusion": "BRAF p.V600E Mutation liegt vor. Bitte Therapieoption mit einem BRAF-Inhibitor prüfen."
      }
    },
    {
      "request": {
        "method": "POST",
        "url": "Observation"
      },
      "fullUrl": "https://www.medizininformatik-initiative.de/Observation/mii-exa-test-data-patient-3-molgen-ergebnis-zusammenfassung-1",
      "resource": {
        "resourceType": "Observation",
        "id": "mii-exa-test-data-patient-3-molgen-ergebnis-zusammenfassung-1",
        "meta": {
          "profile": [
            "https://www.medizininformatik-initiative.de/fhir/ext/modul-molgen/StructureDefinition/ergebnis-zusammenfassung",
            "http://hl7.org/fhir/uv/genomics-reporting/StructureDefinition/overall-interpretation"
          ]
        },
        "category": [
          {
            "coding": [
              {
                "system": "http://terminology.hl7.org/CodeSystem/observation-category",
                "code": "laboratory",
                "display": "Laboratory"
              }
            ]
          }
        ],
        "component": [
          {
            "code": {
              "coding": [
                {
                  "system": "http://hl7.org/fhir/uv/genomics-reporting/CodeSystem/tbd-codes-cs",
                  "code": "conclusion-string"
                }
              ]
            },
            "valueString": "BRAF p.V600E Mutation liegt vor. Bitte Therapieoption mit einem BRAF-Inhibitor prüfen."
          }
        ],
        "code": {
          "coding": [
            {
              "system": "http://loinc.org",
              "code": "51968-6"
            }
          ]
        },
        "status": "final",
        "subject": {
          "reference": "Patient/mii-exa-test-data-patient-3"
        },
        "valueCodeableConcept": {
          "coding": [
            {
              "code": "LA6576-8",
              "system": "http://loinc.org",
              "display": "Positive"
            }
          ]
        }
      }
    },
    {
      "request": {
        "method": "POST",
        "url": "Observation"
      },
      "fullUrl": "https://www.medizininformatik-initiative.de/Observation/mii-exa-test-data-patient-3-molgen-diagnostische-implikation-1",
      "resource": {
        "resourceType": "Observation",
        "id": "mii-exa-test-data-patient-3-molgen-diagnostische-implikation-1",
        "meta": {
          "profile": [
            "https://www.medizininformatik-initiative.de/fhir/ext/modul-molgen/StructureDefinition/diagnostische-implikation",
            "http://hl7.org/fhir/uv/genomics-reporting/StructureDefinition/diagnostic-implication"
          ]
        },
        "category": [
          {
            "coding": [
              {
                "system": "http://terminology.hl7.org/CodeSystem/observation-category",
                "code": "laboratory",
                "display": "Laboratory"
              }
            ]
          }
        ],
        "derivedFrom": [
          {
            "reference": "Observation/mii-exa-test-data-patient-3-molgen-variante-1"
          }
        ],
        "component": [
          {
            "code": {
              "coding": [
                {
                  "system": "http://hl7.org/fhir/uv/genomics-reporting/CodeSystem/tbd-codes-cs",
                  "code": "conclusion-string"
                }
              ]
            },
            "valueString": "Nachweis einer aktivierenden Mutation BRAF V600E"
          }
        ],
        "code": {
          "coding": [
            {
              "system": "http://hl7.org/fhir/uv/genomics-reporting/CodeSystem/tbd-codes-cs",
              "code": "diagnostic-implication",
              "display": "Diagnostic Implication"
            }
          ]
        },
        "status": "final",
        "subject": {
          "reference": "Patient/mii-exa-test-data-patient-3"
        }
      }
    },
    {
      "request": {
        "method": "POST",
        "url": "Observation"
      },
      "fullUrl": "https://www.medizininformatik-initiative.de/Observation/mii-exa-test-data-patient-3-molgen-therapeutische-implikation-1",
      "resource": {
        "resourceType": "Observation",
        "id": "mii-exa-test-data-patient-3-molgen-therapeutische-implikation-1",
        "meta": {
          "profile": [
            "https://www.medizininformatik-initiative.de/fhir/ext/modul-molgen/StructureDefinition/therapeutische-implikation",
            "http://hl7.org/fhir/uv/genomics-reporting/StructureDefinition/therapeutic-implication"
          ]
        },
        "category": [
          {
            "coding": [
              {
                "system": "http://terminology.hl7.org/CodeSystem/observation-category",
                "code": "laboratory",
                "display": "Laboratory"
              }
            ]
          }
        ],
        "component": [
          {
            "code": {
              "coding": [
                {
                  "system": "http://hl7.org/fhir/uv/genomics-reporting/CodeSystem/tbd-codes-cs",
                  "code": "conclusion-string"
                }
              ]
            },
            "valueString": "Nachweis einer aktivierenden Mutation BRAF V600E. Triple-Therapie mit einem EGFR-Antikörper sowie einem BRAF- und einem MEK- Inhibitor prüfen."
          },
          {
            "valueCodeableConcept": {
              "coding": [
                {
                  "code": "L01EC",
                  "system": "http://fhir.de/CodeSystem/bfarm/atc",
                  "display": "B-Raf serine-threonine kinase (BRAF) inhibitors"
                },
                {
                  "code": "703645005",
                  "system": "http://snomed.info/sct",
                  "version": "http://snomed.info/sct/900000000000207008/version/20230731",
                  "display": "Product containing B-Raf inhibitor (product)"
                }
              ],
              "text": "BRAF Inhibitor"
            },
            "code": {
              "coding": [
                {
                  "system": "http://loinc.org",
                  "code": "51963-7",
                  "display": "Medication assessed [ID]"
                }
              ]
            }
          },
          {
            "code": {
              "coding": [
                {
                  "system": "http://loinc.org",
                  "code": "51963-7",
                  "display": "Medication assessed [ID]"
                }
              ]
            },
            "valueCodeableConcept": {
              "coding": [
                {
                  "code": "L01FE",
                  "system": "http://fhir.de/CodeSystem/bfarm/atc",
                  "display": "EGFR (Epidermal Growth Factor Receptor) inhibitors"
                }
              ]
            }
          },
          {
            "code": {
              "coding": [
                {
                  "system": "http://loinc.org",
                  "code": "51963-7",
                  "display": "Medication assessed [ID]"
                }
              ]
            },
            "valueCodeableConcept": {
              "coding": [
                {
                  "code": "L01EE",
                  "system": "http://fhir.de/CodeSystem/bfarm/atc",
                  "display": "Mitogen-activated protein kinase (MEK) inhibitors"
                }
              ]
            }
          }
        ],
        "derivedFrom": [
          {
            "reference": "Observation/mii-exa-test-data-patient-3-molgen-variante-1"
          }
        ],
        "code": {
          "coding": [
            {
              "system": "http://hl7.org/fhir/uv/genomics-reporting/CodeSystem/tbd-codes-cs",
              "code": "therapeutic-implication",
              "display": "Therapeutic Implication"
            }
          ]
        },
        "status": "final",
        "subject": {
          "reference": "Patient/mii-exa-test-data-patient-3"
        }
      }
    },
    {
      "request": {
        "method": "POST",
        "url": "Observation"
      },
      "fullUrl": "https://www.medizininformatik-initiative.de/Observation/mii-exa-test-data-patient-3-molgen-variante-1",
      "resource": {
        "resourceType": "Observation",
        "id": "mii-exa-test-data-patient-3-molgen-variante-1",
        "meta": {
          "profile": [
            "https://www.medizininformatik-initiative.de/fhir/ext/modul-molgen/StructureDefinition/variante",
            "http://hl7.org/fhir/uv/genomics-reporting/StructureDefinition/variant"
          ]
        },
        "basedOn": [
          {
            "reference": "ServiceRequest/mii-exa-test-data-patient-3-molgen-anforderung-1"
          }
        ],
        "category": [
          {
            "coding": [
              {
                "system": "http://terminology.hl7.org/CodeSystem/observation-category",
                "code": "laboratory",
                "display": "Laboratory"
              }
            ]
          }
        ],
        "derivedFrom": [
          {
            "reference": "Observation/mii-exa-test-data-patient-3-molgen-untersuchte-region-1"
          }
        ],
        "component": [
          {
            "code": {
              "coding": [
                {
                  "system": "http://loinc.org",
                  "code": "48018-6",
                  "display": "Gene studied [ID]"
                }
              ]
            },
            "valueCodeableConcept": {
              "coding": [
                {
                  "code": "HGNC:1097",
                  "system": "http://www.genenames.org/geneId",
                  "display": "BRAF"
                }
              ]
            }
          },
          {
            "code": {
              "coding": [
                {
                  "system": "http://loinc.org",
                  "code": "48013-7",
                  "display": "Genomic reference sequence [ID]"
                }
              ]
            },
            "valueCodeableConcept": {
              "coding": [
                {
                  "code": "NM_004333.4",
                  "system": "http://www.ncbi.nlm.nih.gov/refseq"
                }
              ]
            }
          },
          {
            "code": {
              "coding": [
                {
                  "system": "http://loinc.org",
                  "code": "47999-8",
                  "display": "DNA region name [Identifier]"
                }
              ]
            },
            "valueString": "Exon #15"
          },
          {
            "code": {
              "coding": [
                {
                  "system": "http://loinc.org",
                  "code": "47999-8",
                  "display": "DNA region name [Identifier]"
                }
              ]
            },
            "valueString": "Codon #582 - #612"
          },
          {
            "code": {
              "coding": [
                {
                  "system": "http://loinc.org",
                  "code": "48004-6",
                  "display": "DNA change (c.HGVS)"
                }
              ]
            },
            "valueCodeableConcept": {
              "coding": [
                {
                  "code": "NM_004333.4:c.1799T>A",
                  "system": "http://varnomen.hgvs.org"
                }
              ]
            }
          },
          {
            "code": {
              "coding": [
                {
                  "system": "http://loinc.org",
                  "code": "48005-3",
                  "display": "Amino acid change (pHGVS)"
                }
              ]
            },
            "valueCodeableConcept": {
              "coding": [
                {
                  "code": "p.(Val600Glu)",
                  "system": "http://varnomen.hgvs.org"
                }
              ]
            }
          },
          {
            "code": {
              "coding": [
                {
                  "system": "http://loinc.org",
                  "code": "81258-6",
                  "display": "Sample variant allelic frequency [NFr]"
                }
              ]
            },
            "valueQuantity": {
              "value": 30.25,
              "code": "%",
              "system": "http://unitsofmeasure.org"
            }
          },
          {
            "code": {
              "coding": [
                {
                  "system": "http://loinc.org",
                  "code": "48001-2",
                  "display": "Cytogenetic (chromosome) location"
                }
              ]
            },
            "valueCodeableConcept": {
              "coding": [
                {
                  "code": "7q34",
                  "system": "urn:oid:2.16.840.1.113883.6.335"
                }
              ]
            }
          },
          {
            "code": {
              "coding": [
                {
                  "system": "http://loinc.org",
                  "code": "48019-4",
                  "display": "DNA change type"
                }
              ]
            },
            "valueCodeableConcept": {
              "coding": [
                {
                  "code": "SO:1000008",
                  "system": "http://sequenceontology.org",
                  "display": "point_mutation"
                }
              ]
            }
          },
          {
            "code": {
              "coding": [
                {
                  "system": "http://loinc.org",
                  "code": "48006-1",
                  "display": "Amino acid change [Type]"
                }
              ]
            },
            "valueCodeableConcept": {
              "coding": [
                {
                  "code": "LA6698-0",
                  "system": "http://loinc.org",
                  "display": "Missense"
                }
              ]
            }
          },
          {
            "code": {
              "coding": [
                {
                  "system": "http://loinc.org",
                  "code": "81252-9",
                  "display": "Discrete genetic variant"
                }
              ]
            },
            "valueCodeableConcept": {
              "coding": [
                {
                  "code": "rs113488022",
                  "system": "http://www.ncbi.nlm.nih.gov/projects/SNP"
                }
              ]
            }
          }
        ],
        "code": {
          "coding": [
            {
              "system": "http://loinc.org",
              "code": "69548-6",
              "display": "Genetic variant assessment"
            }
          ]
        },
        "status": "final",
        "subject": {
          "reference": "Patient/mii-exa-test-data-patient-3"
        },
        "valueCodeableConcept": {
          "coding": [
            {
              "code": "LA9633-4",
              "system": "http://loinc.org",
              "display": "Present"
            }
          ]
        },
        "method": {
          "coding": [
            {
              "code": "LA26398-0",
              "system": "http://loinc.org",
              "display": "Sequencing"
            }
          ]
        },
        "specimen": {
          "reference": "Specimen/mii-exa-test-data-patient-3-specimen-1"
        },
        "device": {
          "reference": "Device/mii-exa-test-data-molgen-device-sequencer"
        }
      }
    },
    {
      "request": {
        "method": "POST",
        "url": "Observation"
      },
      "fullUrl": "https://www.medizininformatik-initiative.de/Observation/mii-exa-test-data-patient-3-molgen-untersuchte-region-1",
      "resource": {
        "resourceType": "Observation",
        "id": "mii-exa-test-data-patient-3-molgen-untersuchte-region-1",
        "meta": {
          "profile": [
            "https://www.medizininformatik-initiative.de/fhir/ext/modul-molgen/StructureDefinition/untersuchte-region",
            "http://hl7.org/fhir/uv/genomics-reporting/StructureDefinition/region-studied"
          ]
        },
        "category": [
          {
            "coding": [
              {
                "system": "http://terminology.hl7.org/CodeSystem/observation-category",
                "code": "laboratory",
                "display": "Laboratory"
              }
            ]
          }
        ],
        "component": [
          {
            "code": {
              "coding": [
                {
                  "system": "http://loinc.org",
                  "code": "48018-6",
                  "display": "Gene studied [ID]"
                }
              ]
            },
            "valueCodeableConcept": {
              "coding": [
                {
                  "code": "HGNC:1097",
                  "system": "http://www.genenames.org/geneId",
                  "display": "BRAF"
                }
              ]
            }
          },
          {
            "code": {
              "coding": [
                {
                  "system": "http://loinc.org",
                  "code": "36908-2",
                  "display": "Gene mutations tested for in Blood or Tissue by Molecular genetics method Nominal"
                }
              ]
            },
            "valueCodeableConcept": {
              "coding": [
                {
                  "code": "NM_004333.4:c.1799T>A",
                  "system": "http://varnomen.hgvs.org"
                }
              ]
            }
          },
          {
            "code": {
              "coding": [
                {
                  "system": "http://loinc.org",
                  "code": "81293-3",
                  "display": "Description of ranges of DNA sequences examined"
                }
              ]
            },
            "valueString": "BRAF: Exon 15 (Codon 600)"
          },
          {
            "valueRange": {
              "low": {
                "value": 15,
                "code": "{Exon}",
                "system": "http://unitsofmeasure.org",
                "unit": "Exon"
              },
              "high": {
                "value": 15,
                "code": "{Exon}",
                "system": "http://unitsofmeasure.org",
                "unit": "Exon"
              }
            },
            "code": {
              "coding": [
                {
                  "system": "http://loinc.org",
                  "code": "51959-5",
                  "display": "Range(s) of DNA sequence examined"
                }
              ]
            }
          },
          {
            "valueRange": {
              "low": {
                "value": 582,
                "code": "{Codon}",
                "system": "http://unitsofmeasure.org",
                "unit": "Codon"
              },
              "high": {
                "value": 612,
                "code": "{Codon}",
                "system": "http://unitsofmeasure.org",
                "unit": "Codon"
              }
            },
            "code": {
              "coding": [
                {
                  "system": "http://loinc.org",
                  "code": "51959-5",
                  "display": "Range(s) of DNA sequence examined"
                }
              ]
            }
          },
          {
            "code": {
              "coding": [
                {
                  "system": "http://loinc.org",
                  "code": "48013-7",
                  "display": "Genomic reference sequence [ID]"
                }
              ]
            },
            "valueCodeableConcept": {
              "coding": [
                {
                  "code": "NM_004333.4",
                  "system": "http://www.ncbi.nlm.nih.gov/refseq"
                }
              ]
            }
          }
        ],
        "code": {
          "coding": [
            {
              "system": "http://loinc.org",
              "code": "53041-0",
              "display": "DNA region of interest panel"
            }
          ]
        },
        "status": "final",
        "subject": {
          "reference": "Patient/mii-exa-test-data-patient-3"
        },
        "method": {
          "coding": [
            {
              "code": "LA26398-0",
              "system": "http://loinc.org",
              "display": "Sequencing"
            }
          ]
        },
        "specimen": {
          "reference": "Specimen/mii-exa-test-data-patient-3-specimen-1"
        },
        "device": {
          "reference": "Device/mii-exa-test-data-molgen-device-sequencer"
        }
      }
    },
    {
      "request": {
        "method": "POST",
        "url": "Observation"
      },
      "fullUrl": "https://www.medizininformatik-initiative.de/Observation/mii-exa-test-data-patient-3-molgen-genotyp-1",
      "resource": {
        "resourceType": "Observation",
        "id": "mii-exa-test-data-patient-3-molgen-genotyp-1",
        "meta": {
          "profile": [
            "https://www.medizininformatik-initiative.de/fhir/ext/modul-molgen/StructureDefinition/genotyp",
            "http://hl7.org/fhir/uv/genomics-reporting/StructureDefinition/genotype"
          ]
        },
        "category": [
          {
            "coding": [
              {
                "system": "http://terminology.hl7.org/CodeSystem/observation-category",
                "code": "laboratory",
                "display": "Laboratory"
              }
            ]
          }
        ],
        "valueCodeableConcept": {
          "text": "BRAF rs113488022 T>A"
        },
        "derivedFrom": [
          {
            "reference": "Observation/mii-exa-test-data-patient-3-molgen-variante-1"
          }
        ],
        "component": [
          {
            "code": {
              "coding": [
                {
                  "system": "http://loinc.org",
                  "code": "48018-6",
                  "display": "Gene studied [ID]"
                }
              ]
            },
            "valueCodeableConcept": {
              "coding": [
                {
                  "code": "HGNC:1097",
                  "system": "http://www.genenames.org/geneId",
                  "display": "BRAF"
                }
              ]
            }
          },
          {
            "code": {
              "coding": [
                {
                  "system": "http://loinc.org",
                  "code": "48001-2",
                  "display": "Cytogenetic (chromosome) location"
                }
              ]
            },
            "valueCodeableConcept": {
              "coding": [
                {
                  "code": "7q34",
                  "system": "urn:oid:2.16.840.1.113883.6.335"
                }
              ]
            }
          }
        ],
        "code": {
          "coding": [
            {
              "system": "http://loinc.org",
              "code": "84413-4",
              "display": "Genotype display name"
            }
          ]
        },
        "status": "final",
        "subject": {
          "reference": "Patient/mii-exa-test-data-patient-3"
        },
        "method": {
          "coding": [
            {
              "code": "LA26398-0",
              "system": "http://loinc.org",
              "display": "Sequencing"
            }
          ]
        },
        "specimen": {
          "reference": "Specimen/mii-exa-test-data-patient-3-specimen-1"
        },
        "device": {
          "reference": "Device/mii-exa-test-data-molgen-device-sequencer"
        }
      }
    },
    {
      "request": {
        "method": "POST",
        "url": "Observation"
      },
      "fullUrl": "https://www.medizininformatik-initiative.de/Observation/mii-exa-test-data-patient-3-molgen-mutationslast-1",
      "resource": {
        "resourceType": "Observation",
        "id": "mii-exa-test-data-patient-3-molgen-mutationslast-1",
        "meta": {
          "profile": [
            "https://www.medizininformatik-initiative.de/fhir/ext/modul-molgen/StructureDefinition/mutationslast",
            "http://hl7.org/fhir/uv/genomics-reporting/StructureDefinition/tmb"
          ]
        },
        "category": [
          {
            "coding": [
              {
                "system": "http://terminology.hl7.org/CodeSystem/observation-category",
                "code": "laboratory",
                "display": "Laboratory"
              }
            ]
          }
        ],
        "code": {
          "coding": [
            {
              "system": "http://loinc.org",
              "code": "94076-7",
              "display": "Mutations/Megabase [# Ratio] in Tumor"
            }
          ]
        },
        "valueQuantity": {
          "system": "http://unitsofmeasure.org",
          "code": "1/1000000{Base}",
          "value": 12,
          "unit": "Mutations/Megabase"
        },
        "status": "final",
        "subject": {
          "reference": "Patient/mii-exa-test-data-patient-3"
        },
        "specimen": {
          "reference": "Specimen/mii-exa-test-data-patient-3-specimen-1"
        }
      }
    },
    {
      "request": {
        "method": "POST",
        "url": "Observation"
      },
      "fullUrl": "https://www.medizininformatik-initiative.de/Observation/mii-exa-test-data-patient-3-molgen-msi-1",
      "resource": {
        "resourceType": "Observation",
        "id": "mii-exa-test-data-patient-3-molgen-msi-1",
        "meta": {
          "profile": [
            "https://www.medizininformatik-initiative.de/fhir/ext/modul-molgen/StructureDefinition/mikrosatelliteninstabilitaet",
            "http://hl7.org/fhir/uv/genomics-reporting/StructureDefinition/msi"
          ]
        },
        "category": [
          {
            "coding": [
              {
                "system": "http://terminology.hl7.org/CodeSystem/observation-category",
                "code": "laboratory",
                "display": "Laboratory"
              }
            ]
          }
        ],
        "component": [
          {
            "code": {
              "coding": [
                {
                  "system": "http://hl7.org/fhir/uv/genomics-reporting/CodeSystem/tbd-codes-cs",
                  "code": "conclusion-string"
                }
              ]
            },
            "valueString": "Tumor weist ein mikrosatellitenstabiles Wachstum auf."
          }
        ],
        "code": {
          "coding": [
            {
              "system": "http://loinc.org",
              "code": "81695-9",
              "display": "Microsatellite instability [Interpretation] in Cancer specimen Qualitative"
            }
          ]
        },
        "status": "final",
        "subject": {
          "reference": "Patient/mii-exa-test-data-patient-3"
        },
        "valueCodeableConcept": {
          "coding": [
            {
              "code": "LA14122-8",
              "system": "http://loinc.org",
              "display": "Stable"
            }
          ]
        },
        "specimen": {
          "reference": "Specimen/mii-exa-test-data-patient-3-specimen-1"
        }
      }
    },
    {
      "request": {
        "method": "POST",
        "url": "Task"
      },
      "fullUrl": "https://www.medizininformatik-initiative.de/Task/mii-exa-test-data-patient-3-molgen-medikationsempfehlung-1",
      "resource": {
        "resourceType": "Task",
        "id": "mii-exa-test-data-patient-3-molgen-medikationsempfehlung-1",
        "meta": {
          "profile": [
            "https://www.medizininformatik-initiative.de/fhir/ext/modul-molgen/StructureDefinition/medikationsempfehlung",
            "http://hl7.org/fhir/uv/genomics-reporting/StructureDefinition/medication-recommendation"
          ]
        },
        "basedOn": [
          {
            "reference": "ServiceRequest/mii-exa-test-data-patient-3-molgen-anforderung-1"
          }
        ],
        "code": {
          "coding": [
            {
              "code": "LA26421-0",
              "system": "http://loinc.org",
              "display": "Consider alternative medication"
            }
          ],
          "text": "Alternative Medikation in Erwägung ziehen"
        },
        "status": "requested",
        "intent": "proposal",
        "for": {
          "reference": "Patient/mii-exa-test-data-patient-3"
        },
        "reasonReference": {
          "reference": "Observation/mii-exa-test-data-patient-3-molgen-therapeutische-implikation-1"
        }
      }
    },
    {
      "request": {
        "method": "POST",
        "url": "Task"
      },
      "fullUrl": "https://www.medizininformatik-initiative.de/Task/mii-exa-test-data-patient-3-molgen-folgemassnahme-1",
      "resource": {
        "resourceType": "Task",
        "id": "mii-exa-test-data-patient-3-molgen-folgemassnahme-1",
        "meta": {
          "profile": [
            "https://www.medizininformatik-initiative.de/fhir/ext/modul-molgen/StructureDefinition/empfohlene-folgemassnahme",
            "http://hl7.org/fhir/uv/genomics-reporting/StructureDefinition/followup-recommendation"
          ]
        },
        "basedOn": [
          {
            "reference": "ServiceRequest/mii-exa-test-data-patient-3-molgen-anforderung-1"
          }
        ],
        "status": "requested",
        "intent": "proposal",
        "code": {
          "coding": [
            {
              "code": "LA14020-4",
              "system": "http://loinc.org",
              "display": "Genetic counseling recommended"
            }
          ]
        },
        "description": "Genetische Beratung empfohlen mit Dr. Rosalind Franklin",
        "for": {
          "reference": "Patient/mii-exa-test-data-patient-3"
        },
        "reasonReference": {
          "reference": "Observation/mii-exa-test-data-patient-3-molgen-therapeutische-implikation-1"
        },
        "reasonCode": {
          "coding": [
            {
              "code": "447886005",
              "system": "http://snomed.info/sct",
              "version": "http://snomed.info/sct/900000000000207008/version/20230731",
              "display": "Adenocarcinoma of anorectum (disorder)"
            }
          ]
        }
      }
    },
    {
      "request": {
        "method": "POST",
        "url": "FamilyMemberHistory"
      },
      "fullUrl": "https://www.medizininformatik-initiative.de/FamilyMemberHistory/mii-exa-test-data-patient-3-molgen-family-member-history-1",
      "resource": {
        "resourceType": "FamilyMemberHistory",
        "id": "mii-exa-test-data-patient-3-molgen-family-member-history-1",
        "meta": {
          "profile": [
            "https://www.medizininformatik-initiative.de/fhir/ext/modul-molgen/StructureDefinition/familienanamnese"
          ]
        },
        "relationship": {
          "coding": [
            {
              "system": "http://snomed.info/sct",
              "code": "72705000",
              "version": "http://snomed.info/sct/900000000000207008/version/20230731",
              "display": "Mother (person)"
            },
            {
              "system": "http://terminology.hl7.org/CodeSystem/v3-RoleCode",
              "code": "MTH",
              "display": "mother"
            }
          ]
        },
        "sex": {
          "coding": [
            {
              "code": "female",
              "system": "http://hl7.org/fhir/administrative-gender"
            },
            {
              "code": "248152002",
              "system": "http://snomed.info/sct",
              "version": "http://snomed.info/sct/900000000000207008/version/20230731",
              "display": "Female (finding)"
            }
          ]
        },
        "reasonCode": [
          {
            "coding": [
              {
                "system": "http://snomed.info/sct",
                "code": "447886005",
                "version": "http://snomed.info/sct/900000000000207008/version/20230731",
                "display": "Adenocarcinoma of anorectum (disorder)"
              }
            ]
          }
        ],
        "reasonReference": [
          {
            "reference": "Condition/mii-exa-test-data-patient-3-diagnose-1"
          }
        ],
        "condition": [
          {
            "code": {
              "coding": [
                {
                  "system": "http://snomed.info/sct",
                  "code": "830150003",
                  "version": "http://snomed.info/sct/900000000000207008/version/20230731",
                  "display": "Malignant melanoma with B-Raf proto-oncogene, serine/threonine kinase V600E mutation (disorder)"
                }
              ]
            },
            "contributedToDeath": true
          }
        ],
        "status": "completed",
        "patient": {
          "reference": "Patient/mii-exa-test-data-patient-3"
        },
        "date": "2022-04-07",
        "deceasedBoolean": true
      }
    },
    {
      "request": {
        "method": "POST",
        "url": "Specimen"
      },
      "fullUrl": "https://www.medizininformatik-initiative.de/Specimen/mii-exa-test-data-patient-3-specimen-1",
      "resource": {
        "resourceType": "Specimen",
        "id": "mii-exa-test-data-patient-3-specimen-1",
        "meta": {
          "profile": [
            "https://www.medizininformatik-initiative.de/fhir/ext/modul-biobank/StructureDefinition/Specimen"
          ]
        },
        "collection": {
          "collectedDateTime": "2022-03-24T12:44:00+01:00",
          "bodySite": {
            "coding": [
              {
                "code": "71854001",
                "system": "http://snomed.info/sct",
                "version": "http://snomed.info/sct/900000000000207008/version/20230731",
                "display": "Colon structure (body structure)"
              }
            ]
          }
        },
        "identifier": [
          {
            "system": "https://www.charite.de/fhir/sid/Bioproben",
            "value": "BP_000002"
          }
        ],
        "type": {
          "coding": [
            {
              "code": "128159001",
              "system": "http://snomed.info/sct",
              "version": "http://snomed.info/sct/900000000000207008/version/20230731",
              "display": "Tissue specimen from colon (specimen)"
            }
          ]
        },
        "status": "available",
        "subject": {
          "reference": "Patient/mii-exa-test-data-patient-3"
        }
      }
    },
    {
      "request": {
        "method": "POST",
        "url": "Specimen"
      },
      "fullUrl": "https://www.medizininformatik-initiative.de/Specimen/mii-exa-test-data-patient-3-specimen-2",
      "resource": {
        "resourceType": "Specimen",
        "id": "mii-exa-test-data-patient-3-specimen-2",
        "meta": {
          "profile": [
            "https://www.medizininformatik-initiative.de/fhir/ext/modul-biobank/StructureDefinition/Specimen"
          ]
        },
        "extension": [
          {
            "url": "https://www.medizininformatik-initiative.de/fhir/ext/modul-biobank/StructureDefinition/VerwaltendeOrganisation",
            "valueReference": {
              "reference": "Organization/mii-exa-test-data-organization-biobank-charite"
            }
          },
          {
            "url": "https://www.medizininformatik-initiative.de/fhir/ext/modul-biobank/StructureDefinition/Diagnose",
            "valueReference": {
              "reference": "Condition/mii-exa-test-data-patient-3-diagnose-1"
            }
          }
        ],
        "identifier": [
          {
            "system": "https://www.charite.de/fhir/sid/Bioproben",
            "value": "BP_000004"
          }
        ],
        "type": {
          "coding": [
            {
              "code": "119364003",
              "system": "http://snomed.info/sct",
              "version": "http://snomed.info/sct/900000000000207008/version/20230731",
              "display": "Serum specimen (specimen)"
            }
          ]
        },
        "collection": {
          "bodySite": {
            "coding": [
              {
                "code": "368208006",
                "system": "http://snomed.info/sct",
                "version": "http://snomed.info/sct/900000000000207008/version/20230731",
                "display": "Left upper arm structure (body structure)"
              }
            ]
          },
          "collectedDateTime": "2022-04-05T07:15:00+02:00"
        },
        "container": [
          {
            "type": {
              "coding": [
                {
                  "code": "83059008",
                  "system": "http://snomed.info/sct",
                  "version": "http://snomed.info/sct/900000000000207008/version/20230731",
                  "display": "Tube, device (physical object)"
                }
              ]
            },
            "capacity": {
              "value": 7,
              "code": "ml",
              "system": "http://unitsofmeasure.org"
            },
            "specimenQuantity": {
              "value": 7,
              "code": "ml",
              "system": "http://unitsofmeasure.org"
            }
          }
        ],
        "status": "available",
        "subject": {
          "reference": "Patient/mii-exa-test-data-patient-3"
        }
      }
    },
    {
      "request": {
        "method": "POST",
        "url": "Specimen"
      },
      "fullUrl": "https://www.medizininformatik-initiative.de/Specimen/mii-exa-test-data-patient-3-specimen-3",
      "resource": {
        "resourceType": "Specimen",
        "id": "mii-exa-test-data-patient-3-specimen-3",
        "meta": {
          "profile": [
            "https://www.medizininformatik-initiative.de/fhir/ext/modul-biobank/StructureDefinition/Specimen"
          ]
        },
        "extension": [
          {
            "url": "https://www.medizininformatik-initiative.de/fhir/ext/modul-biobank/StructureDefinition/VerwaltendeOrganisation",
            "valueReference": {
              "reference": "Organization/mii-exa-test-data-organization-biobank-charite"
            }
          },
          {
            "url": "https://www.medizininformatik-initiative.de/fhir/ext/modul-biobank/StructureDefinition/Diagnose",
            "valueReference": {
              "reference": "Condition/mii-exa-test-data-patient-3-diagnose-1"
            }
          }
        ],
        "identifier": [
          {
            "system": "https://www.charite.de/fhir/sid/Bioproben",
            "value": "BP_000005"
          }
        ],
        "type": {
          "coding": [
            {
              "code": "445295009",
              "system": "http://snomed.info/sct",
              "version": "http://snomed.info/sct/900000000000207008/version/20230731",
              "display": "Blood specimen with edetic acid (specimen)"
            }
          ]
        },
        "collection": {
          "bodySite": {
            "coding": [
              {
                "code": "368209003",
                "system": "http://snomed.info/sct",
                "version": "http://snomed.info/sct/900000000000207008/version/20230731",
                "display": "Right upper arm structure (body structure)"
              }
            ]
          },
          "collectedDateTime": "2022-04-05T07:15:00+02:00"
        },
        "container": [
          {
            "type": {
              "coding": [
                {
                  "code": "83059008",
                  "system": "http://snomed.info/sct",
                  "version": "http://snomed.info/sct/900000000000207008/version/20230731",
                  "display": "Tube, device (physical object)"
                }
              ]
            },
            "capacity": {
              "value": 5,
              "code": "ml",
              "system": "http://unitsofmeasure.org"
            },
            "specimenQuantity": {
              "value": 5,
              "code": "ml",
              "system": "http://unitsofmeasure.org"
            }
          }
        ],
        "status": "available",
        "subject": {
          "reference": "Patient/mii-exa-test-data-patient-3"
        }
      }
    },
    {
      "request": {
        "method": "POST",
        "url": "Organization"
      },
      "fullUrl": "https://www.medizininformatik-initiative.de/Organization/mii-exa-test-data-organization-charite",
      "resource": {
        "resourceType": "Organization",
        "id": "mii-exa-test-data-organization-charite",
        "type": [
          {
            "coding": [
              {
                "code": "prov",
                "system": "http://terminology.hl7.org/CodeSystem/organization-type",
                "display": "Healthcare Provider"
              }
            ]
          }
        ],
        "name": "Charité – Universitätsmedizin Berlin"
      }
    },
    {
      "request": {
        "method": "POST",
        "url": "Organization"
      },
      "fullUrl": "https://www.medizininformatik-initiative.de/Organization/mii-exa-test-data-organization-labor-berlin",
      "resource": {
        "resourceType": "Organization",
        "id": "mii-exa-test-data-organization-labor-berlin",
        "type": [
          {
            "coding": [
              {
                "code": "prov",
                "system": "http://terminology.hl7.org/CodeSystem/organization-type",
                "display": "Healthcare Provider"
              }
            ]
          }
        ],
        "name": "Labor Berlin – Charité Vivantes GmbH"
      }
    },
    {
      "request": {
        "method": "POST",
        "url": "Organization"
      },
      "fullUrl": "https://www.medizininformatik-initiative.de/Organization/mii-exa-test-data-organization-biobank-charite",
      "resource": {
        "resourceType": "Organization",
        "id": "mii-exa-test-data-organization-biobank-charite",
        "meta": {
          "profile": [
            "https://www.medizininformatik-initiative.de/fhir/ext/modul-biobank/StructureDefinition/Organization"
          ]
        },
        "extension": [
          {
            "url": "https://www.medizininformatik-initiative.de/fhir/ext/modul-biobank/StructureDefinition/BeschreibungSammlung",
            "valueMarkdown": "Zentrale Biobank der Charité"
          }
        ],
        "identifier": [
          {
            "system": "http://www.bbmri-eric.eu/",
            "value": "de-12345"
          }
        ],
        "alias": [
          "ZeBanC"
        ],
        "contact": [
          {
            "extension": [
              {
                "url": "https://www.medizininformatik-initiative.de/fhir/ext/modul-biobank/StructureDefinition/KontaktRolle",
                "valueString": "Direktor"
              }
            ],
            "name": {
              "given": [
                "Koch"
              ],
              "prefix": [
                "Prof."
              ],
              "family": "Robert"
            },
            "telecom": [
              {
                "system": "email",
                "value": "robert.koch@charite.de"
              }
            ],
            "address": {
              "line": [
                "Südring 7"
              ],
              "postalCode": "13353",
              "city": "Berlin"
            },
            "purpose": {
              "coding": [
                {
                  "system": "https://www.medizininformatik-initiative.de/fhir/ext/modul-biobank/CodeSystem/ContactType",
                  "code": "RESEARCH"
                }
              ]
            }
          }
        ],
        "name": "Zentrale Biobank der Charité",
        "partOf": {
          "reference": "Organization/mii-exa-test-data-organization-charite"
        }
      }
    },
    {
      "request": {
        "method": "POST",
        "url": "Practitioner"
      },
      "fullUrl": "https://www.medizininformatik-initiative.de/Practitioner/mii-exa-test-data-practitioner-physician-1",
      "resource": {
        "resourceType": "Practitioner",
        "id": "mii-exa-test-data-practitioner-physician-1",
        "name": [
          {
            "given": [
              "Rahel"
            ],
            "family": "Hirsch"
          }
        ],
        "active": true
      }
    },
    {
      "request": {
        "method": "POST",
        "url": "PractitionerRole"
      },
      "fullUrl": "https://www.medizininformatik-initiative.de/PractitionerRole/mii-exa-test-data-practitioner-role-physician-1",
      "resource": {
        "resourceType": "PractitionerRole",
        "id": "mii-exa-test-data-practitioner-role-physician-1",
        "meta": {
          "profile": [
            "https://www.medizininformatik-initiative.de/fhir/modul-studie/StructureDefinition/mii-pr-studie-beteiligte-person"
          ]
        },
        "code": [
          {
            "coding": [
              {
                "code": "309343006",
                "system": "http://snomed.info/sct",
                "version": "http://snomed.info/sct/900000000000207008/version/20230731",
                "display": "Physician (occupation)"
              }
            ]
          }
        ],
        "active": true,
        "practitioner": {
          "reference": "Practitioner/mii-exa-test-data-practitioner-physician-1"
        },
        "organization": {
          "reference": "Organization/mii-exa-test-data-organization-charite"
        }
      }
    },
    {
      "request": {
        "method": "POST",
        "url": "Device"
      },
      "fullUrl": "https://www.medizininformatik-initiative.de/Device/mii-exa-test-data-device-roche-cobas-c303",
      "resource": {
        "resourceType": "Device",
        "id": "mii-exa-test-data-device-roche-cobas-c303",
        "deviceName": [
          {
            "name": "cobas",
            "type": "manufacturer-name"
          }
        ],
        "status": "active",
        "manufacturer": "Roche",
        "modelNumber": "c 303",
        "parent": {
          "reference": "Device/mii-exa-test-data-device-roche-cobas"
        }
      }
    },
    {
      "request": {
        "method": "POST",
        "url": "Device"
      },
      "fullUrl": "https://www.medizininformatik-initiative.de/Device/mii-exa-test-data-molgen-device-sequencer",
      "resource": {
        "resourceType": "Device",
        "id": "mii-exa-test-data-molgen-device-sequencer",
        "deviceName": [
          {
            "name": "MiSeq",
            "type": "manufacturer-name"
          }
        ],
        "status": "active",
        "manufacturer": "Illumina"
      }
    }
  ],
  "type": "transaction",
  "timestamp": "2025-06-18T13:51:00+02:00"
}
