{
  "resourceType": "Bundle",
  "id": "mii-exa-test-data-bundle-pat-4",
  "entry": [
    {
      "request": {
        "method": "POST",
        "url": "Patient"
      },
      "fullUrl": "https://www.medizininformatik-initiative.de/Patient/mii-exa-test-data-patient-4",
      "resource": {
        "resourceType": "Patient",
        "id": "mii-exa-test-data-patient-4",
        "meta": {
          "profile": [
            "https://www.medizininformatik-initiative.de/fhir/core/modul-person/StructureDefinition/PatientPseudonymisiert",
            "http://fhir.de/ConsentManagement/StructureDefinition/Patient"
          ]
        },
        "identifier": [
          {
            "type": {
              "coding": [
                {
                  "system": "http://terminology.hl7.org/CodeSystem/v3-ObservationValue",
                  "code": "PSEUDED"
                }
              ]
            },
            "system": "https://www.charite.de/fhir/sid/pseudonyme",
            "value": "CP5712840020128"
          }
        ],
        "address": [
          {
            "type": "both",
            "postalCode": "10",
            "country": "DE",
            "_line": [
              {
                "extension": [
                  {
                    "url": "http://hl7.org/fhir/StructureDefinition/data-absent-reason",
                    "valueCode": "masked"
                  }
                ]
              }
            ],
            "_city": {
              "extension": [
                {
                  "url": "http://hl7.org/fhir/StructureDefinition/data-absent-reason",
                  "valueCode": "masked"
                }
              ]
            }
          }
        ],
        "gender": "male",
        "birthDate": "1962"
      }
    },
    {
      "request": {
        "method": "POST",
        "url": "Condition"
      },
      "fullUrl": "https://www.medizininformatik-initiative.de/Condition/mii-exa-test-data-patient-4-diagnose-1",
      "resource": {
        "resourceType": "Condition",
        "id": "mii-exa-test-data-patient-4-diagnose-1",
        "meta": {
          "profile": [
            "https://www.medizininformatik-initiative.de/fhir/core/modul-diagnose/StructureDefinition/Diagnose"
          ]
        },
        "code": {
          "coding": [
            {
              "system": "http://fhir.de/CodeSystem/bfarm/icd-10-gm",
              "code": "C16.9",
              "version": "2022"
            }
          ]
        },
        "note": [
          {
            "text": "Bösartige Neubildung des Magens nicht näher bezeichnet"
          }
        ],
        "clinicalStatus": {
          "coding": [
            {
              "code": "active",
              "system": "http://terminology.hl7.org/CodeSystem/condition-clinical"
            }
          ]
        },
        "verificationStatus": {
          "coding": [
            {
              "code": "confirmed",
              "system": "http://terminology.hl7.org/CodeSystem/condition-ver-status"
            }
          ]
        },
        "subject": {
          "reference": "Patient/mii-exa-test-data-patient-4"
        },
        "recordedDate": "2022-11-30"
      }
    },
    {
      "request": {
        "method": "POST",
        "url": "ServiceRequest"
      },
      "fullUrl": "https://www.medizininformatik-initiative.de/ServiceRequest/mii-exa-test-data-patient-4-molgen-anforderung-1",
      "resource": {
        "resourceType": "ServiceRequest",
        "id": "mii-exa-test-data-patient-4-molgen-anforderung-1",
        "meta": {
          "profile": [
            "https://www.medizininformatik-initiative.de/fhir/ext/modul-molgen/StructureDefinition/anforderung-genetischer-test"
          ]
        },
        "identifier": [
          {
            "system": "https://www.charite.de/fhir/auftragsnummern",
            "value": "7B369EB0"
          }
        ],
        "category": [
          {
            "coding": [
              {
                "code": "108252007",
                "system": "http://snomed.info/sct",
                "version": "http://snomed.info/sct/900000000000207008/version/20230731",
                "display": "Laboratory procedure (procedure)"
              }
            ]
          }
        ],
        "code": {
          "coding": [
            {
              "code": "405825005",
              "system": "http://snomed.info/sct",
              "version": "http://snomed.info/sct/900000000000207008/version/20230731",
              "display": "Molecular genetic test (procedure)"
            }
          ],
          "text": "Molekulargenetische Untersuchung (Stufendiagnostik) der relevanten Gene"
        },
        "specimen": [
          {
            "reference": "Specimen/mii-exa-test-data-patient-4-specimen-1"
          }
        ],
        "reasonCode": [
          {
            "coding": [
              {
                "code": "87737001",
                "system": "http://snomed.info/sct",
                "version": "http://snomed.info/sct/900000000000207008/version/20230731",
                "display": "Signet ring cell carcinoma (morphologic abnormality)"
              }
            ],
            "text": "Eigenanamnese: Siegelringkarzinom des Magens, diffus wachsend"
          },
          {
            "coding": [
              {
                "code": "429740004",
                "system": "http://snomed.info/sct",
                "version": "http://snomed.info/sct/900000000000207008/version/20230731",
                "display": "Family history of malignant neoplasm of breast (situation)"
              }
            ],
            "text": "Mutter an Brustkrebs verstorben"
          }
        ],
        "reasonReference": [
          {
            "reference": "Condition/mii-exa-test-data-patient-4-diagnose-1"
          }
        ],
        "status": "active",
        "intent": "order",
        "subject": {
          "reference": "Patient/mii-exa-test-data-patient-4"
        },
        "authoredOn": "2022-11-30",
        "requester": {
          "reference": "Practitioner/mii-exa-test-data-practitioner-physician-2"
        }
      }
    },
    {
      "request": {
        "method": "POST",
        "url": "Practitioner"
      },
      "fullUrl": "https://www.medizininformatik-initiative.de/Practitioner/mii-exa-test-data-practitioner-physician-2",
      "resource": {
        "resourceType": "Practitioner",
        "id": "mii-exa-test-data-practitioner-physician-2",
        "name": [
          {
            "given": [
              "Robert"
            ],
            "prefix": [
              "Dr."
            ],
            "use": "official",
            "family": "Koch"
          }
        ],
        "active": true
      }
    },
    {
      "request": {
        "method": "POST",
        "url": "Specimen"
      },
      "fullUrl": "https://www.medizininformatik-initiative.de/Specimen/mii-exa-test-data-patient-4-specimen-1",
      "resource": {
        "resourceType": "Specimen",
        "id": "mii-exa-test-data-patient-4-specimen-1",
        "meta": {
          "profile": [
            "https://www.medizininformatik-initiative.de/fhir/ext/modul-biobank/StructureDefinition/SpecimenCore"
          ]
        },
        "collection": {
          "collectedDateTime": "2022-11-30"
        },
        "identifier": [
          {
            "system": "https://www.charite.de/fhir/sid/bioproben",
            "value": "BP_00070024"
          }
        ],
        "status": "available",
        "type": {
          "coding": [
            {
              "code": "445295009",
              "system": "http://snomed.info/sct",
              "version": "http://snomed.info/sct/900000000000207008/version/20230731",
              "display": "Blood specimen with edetic acid (specimen)"
            }
          ]
        },
        "subject": {
          "reference": "Patient/mii-exa-test-data-patient-4"
        },
        "receivedTime": "2022-11-30"
      }
    },
    {
      "request": {
        "method": "POST",
        "url": "Specimen"
      },
      "fullUrl": "https://www.medizininformatik-initiative.de/Specimen/mii-exa-test-data-patient-4-specimen-2",
      "resource": {
        "resourceType": "Specimen",
        "id": "mii-exa-test-data-patient-4-specimen-2",
        "meta": {
          "profile": [
            "https://www.medizininformatik-initiative.de/fhir/ext/modul-biobank/StructureDefinition/SpecimenCore"
          ]
        },
        "collection": {
          "collectedDateTime": "2022-11-30"
        },
        "identifier": [
          {
            "system": "https://www.charite.de/fhir/sid/bioproben",
            "value": "BP_00070025"
          }
        ],
        "status": "available",
        "type": {
          "coding": [
            {
              "code": "445295009",
              "system": "http://snomed.info/sct",
              "version": "http://snomed.info/sct/900000000000207008/version/20230731",
              "display": "Blood specimen with edetic acid (specimen)"
            }
          ]
        },
        "subject": {
          "reference": "Patient/mii-exa-test-data-patient-4"
        },
        "receivedTime": "2022-11-30"
      }
    },
    {
      "request": {
        "method": "POST",
        "url": "FamilyMemberHistory"
      },
      "fullUrl": "https://www.medizininformatik-initiative.de/FamilyMemberHistory/mii-exa-test-data-patient-4-molgen-family-member-history-1",
      "resource": {
        "resourceType": "FamilyMemberHistory",
        "id": "mii-exa-test-data-patient-4-molgen-family-member-history-1",
        "meta": {
          "profile": [
            "https://www.medizininformatik-initiative.de/fhir/ext/modul-molgen/StructureDefinition/familienanamnese"
          ]
        },
        "relationship": {
          "coding": [
            {
              "system": "http://snomed.info/sct",
              "code": "72705000",
              "version": "http://snomed.info/sct/900000000000207008/version/20230731",
              "display": "Mother (person)"
            },
            {
              "system": "http://terminology.hl7.org/CodeSystem/v3-RoleCode",
              "code": "MTH",
              "display": "mother"
            }
          ]
        },
        "sex": {
          "coding": [
            {
              "code": "female",
              "system": "http://hl7.org/fhir/administrative-gender"
            },
            {
              "code": "248152002",
              "system": "http://snomed.info/sct",
              "version": "http://snomed.info/sct/900000000000207008/version/20230731",
              "display": "Female (finding)"
            }
          ]
        },
        "reasonCode": [
          {
            "coding": [
              {
                "system": "http://snomed.info/sct",
                "code": "87737001",
                "version": "http://snomed.info/sct/900000000000207008/version/20230731",
                "display": "Signet ring cell carcinoma (morphologic abnormality)"
              }
            ]
          }
        ],
        "condition": [
          {
            "code": {
              "coding": [
                {
                  "system": "http://snomed.info/sct",
                  "code": "254837009",
                  "version": "http://snomed.info/sct/900000000000207008/version/20230731",
                  "display": "Malignant neoplasm of breast (disorder)"
                }
              ]
            },
            "contributedToDeath": true
          }
        ],
        "status": "completed",
        "patient": {
          "reference": "Patient/mii-exa-test-data-patient-4"
        },
        "date": "2022-11-30",
        "deceasedBoolean": true
      }
    },
    {
      "request": {
        "method": "POST",
        "url": "Observation"
      },
      "fullUrl": "https://www.medizininformatik-initiative.de/Observation/mii-exa-test-data-patient-4-molgen-variante-1",
      "resource": {
        "resourceType": "Observation",
        "id": "mii-exa-test-data-patient-4-molgen-variante-1",
        "meta": {
          "profile": [
            "https://www.medizininformatik-initiative.de/fhir/ext/modul-molgen/StructureDefinition/variante"
          ]
        },
        "basedOn": [
          {
            "reference": "ServiceRequest/mii-exa-test-data-patient-4-molgen-anforderung-1"
          }
        ],
        "category": [
          {
            "coding": [
              {
                "system": "http://terminology.hl7.org/CodeSystem/observation-category",
                "code": "laboratory",
                "display": "Laboratory"
              }
            ]
          }
        ],
        "method": {
          "coding": [
            {
              "code": "LA26398-0",
              "system": "http://loinc.org",
              "display": "Sequencing"
            }
          ]
        },
        "component": [
          {
            "code": {
              "coding": [
                {
                  "system": "http://loinc.org",
                  "code": "48018-6"
                }
              ]
            },
            "valueCodeableConcept": {
              "coding": [
                {
                  "code": "HGNC:2509",
                  "system": "http://www.genenames.org/geneId",
                  "display": "CTNNA1"
                }
              ]
            }
          },
          {
            "code": {
              "coding": [
                {
                  "system": "http://loinc.org",
                  "code": "51958-7"
                }
              ]
            },
            "valueCodeableConcept": {
              "coding": [
                {
                  "code": "NM_001903.5",
                  "system": "http://www.ncbi.nlm.nih.gov/refseq"
                }
              ]
            }
          },
          {
            "code": {
              "coding": [
                {
                  "system": "http://loinc.org",
                  "code": "48004-6"
                }
              ]
            },
            "valueCodeableConcept": {
              "coding": [
                {
                  "code": "NM_001903.5:c.1030del",
                  "system": "http://varnomen.hgvs.org"
                }
              ]
            }
          },
          {
            "code": {
              "coding": [
                {
                  "system": "http://loinc.org",
                  "code": "81290-9"
                }
              ]
            },
            "valueCodeableConcept": {
              "coding": [
                {
                  "code": "NC_000005.9:g.138163372del",
                  "system": "http://varnomen.hgvs.org"
                }
              ]
            }
          },
          {
            "code": {
              "coding": [
                {
                  "system": "http://loinc.org",
                  "code": "48013-7"
                }
              ]
            },
            "valueCodeableConcept": {
              "coding": [
                {
                  "code": "NC_000005.9",
                  "system": "http://www.ncbi.nlm.nih.gov/refseq"
                }
              ]
            }
          },
          {
            "code": {
              "coding": [
                {
                  "system": "http://loinc.org",
                  "code": "48005-3"
                }
              ]
            },
            "valueCodeableConcept": {
              "coding": [
                {
                  "code": "p.(Leu344CysfsTer25)",
                  "system": "http://varnomen.hgvs.org"
                }
              ]
            }
          },
          {
            "code": {
              "coding": [
                {
                  "system": "http://loinc.org",
                  "code": "53034-5"
                }
              ]
            },
            "valueCodeableConcept": {
              "coding": [
                {
                  "code": "LA6706-1",
                  "system": "http://loinc.org",
                  "display": "Heterozygous"
                }
              ]
            }
          },
          {
            "code": {
              "coding": [
                {
                  "system": "http://loinc.org",
                  "code": "48019-4"
                }
              ]
            },
            "valueCodeableConcept": {
              "coding": [
                {
                  "code": "SO:0000159",
                  "system": "http://sequenceontology.org",
                  "display": "deletion"
                }
              ]
            }
          },
          {
            "code": {
              "coding": [
                {
                  "system": "http://loinc.org",
                  "code": "48006-1"
                }
              ]
            },
            "valueCodeableConcept": {
              "coding": [
                {
                  "code": "LA6694-9",
                  "system": "http://loinc.org",
                  "display": "Frameshift"
                }
              ]
            }
          },
          {
            "code": {
              "coding": [
                {
                  "system": "http://loinc.org",
                  "code": "48001-2"
                }
              ]
            },
            "valueCodeableConcept": {
              "coding": [
                {
                  "code": "5q31.2",
                  "system": "urn:oid:2.16.840.1.113883.6.335"
                }
              ]
            }
          }
        ],
        "code": {
          "coding": [
            {
              "system": "http://loinc.org",
              "code": "69548-6",
              "display": "Genetic variant assessment"
            }
          ]
        },
        "status": "final",
        "subject": {
          "reference": "Patient/mii-exa-test-data-patient-4"
        },
        "valueCodeableConcept": {
          "coding": [
            {
              "code": "LA9633-4",
              "system": "http://loinc.org",
              "display": "Present"
            }
          ]
        },
        "specimen": {
          "reference": "Specimen/mii-exa-test-data-patient-4-specimen-1"
        },
        "device": {
          "reference": "Device/mii-exa-test-data-molgen-device-sequencer"
        }
      }
    },
    {
      "request": {
        "method": "POST",
        "url": "Observation"
      },
      "fullUrl": "https://www.medizininformatik-initiative.de/Observation/mii-exa-test-data-patient-4-molgen-diagnostische-implikation-1",
      "resource": {
        "resourceType": "Observation",
        "id": "mii-exa-test-data-patient-4-molgen-diagnostische-implikation-1",
        "meta": {
          "profile": [
            "https://www.medizininformatik-initiative.de/fhir/ext/modul-molgen/StructureDefinition/diagnostische-implikation"
          ]
        },
        "extension": [
          {
            "valueRelatedArtifact": {
              "type": "citation",
              "citation": "ClinGen",
              "url": "https://search.clinicalgenome.org/kb/gene-dosage/HGNC:2509"
            },
            "url": "http://hl7.org/fhir/uv/genomics-reporting/StructureDefinition/genomics-artifact"
          }
        ],
        "category": [
          {
            "coding": [
              {
                "system": "http://terminology.hl7.org/CodeSystem/observation-category",
                "code": "laboratory",
                "display": "Laboratory"
              }
            ]
          }
        ],
        "performer": [
          {
            "reference": "Practitioner/mii-exa-test-data-practitioner-physician-2"
          }
        ],
        "derivedFrom": [
          {
            "reference": "Observation/mii-exa-test-data-patient-4-molgen-variante-1"
          }
        ],
        "component": [
          {
            "code": {
              "coding": [
                {
                  "system": "http://hl7.org/fhir/uv/genomics-reporting/CodeSystem/tbd-codes-cs",
                  "code": "conclusion-string"
                }
              ]
            },
            "valueString": "Diese Variante wird nach den ACMG/AMP-Kriterien zusammenfasssend als pathogen bewertet entsprechend IARC Class 5."
          },
          {
            "code": {
              "coding": [
                {
                  "system": "http://loinc.org",
                  "code": "53037-8"
                }
              ]
            },
            "valueCodeableConcept": {
              "coding": [
                {
                  "code": "LA6668-3",
                  "system": "http://loinc.org",
                  "display": "Pathogenic"
                }
              ]
            }
          },
          {
            "code": {
              "coding": [
                {
                  "system": "http://hl7.org/fhir/uv/genomics-reporting/CodeSystem/tbd-codes-cs",
                  "code": "functional-effect"
                }
              ]
            },
            "valueCodeableConcept": {
              "coding": [
                {
                  "code": "SO:0002054",
                  "system": "http://sequenceontology.org",
                  "display": "loss_of_function_variant"
                }
              ]
            }
          },
          {
            "valueCodeableConcept": {
              "coding": [
                {
                  "code": "716859000",
                  "system": "http://snomed.info/sct",
                  "version": "http://snomed.info/sct/900000000000207008/version/20230731",
                  "display": "Hereditary diffuse carcinoma of stomach (disorder)"
                }
              ]
            },
            "code": {
              "coding": [
                {
                  "system": "http://loinc.org",
                  "code": "81259-4"
                }
              ]
            }
          }
        ],
        "code": {
          "coding": [
            {
              "system": "http://hl7.org/fhir/uv/genomics-reporting/CodeSystem/tbd-codes-cs",
              "code": "diagnostic-implication",
              "display": "Diagnostic Implication"
            }
          ]
        },
        "status": "final",
        "subject": {
          "reference": "Patient/mii-exa-test-data-patient-4"
        }
      }
    },
    {
      "request": {
        "method": "POST",
        "url": "Observation"
      },
      "fullUrl": "https://www.medizininformatik-initiative.de/Observation/mii-exa-test-data-patient-4-molgen-untersuchte-region-1",
      "resource": {
        "resourceType": "Observation",
        "id": "mii-exa-test-data-patient-4-molgen-untersuchte-region-1",
        "meta": {
          "profile": [
            "https://www.medizininformatik-initiative.de/fhir/ext/modul-molgen/StructureDefinition/untersuchte-region",
            "http://hl7.org/fhir/uv/genomics-reporting/StructureDefinition/region-studied"
          ]
        },
        "category": [
          {
            "coding": [
              {
                "system": "http://terminology.hl7.org/CodeSystem/observation-category",
                "code": "laboratory",
                "display": "Laboratory"
              }
            ]
          }
        ],
        "performer": [
          {
            "reference": "Practitioner/mii-exa-test-data-practitioner-physician-2"
          }
        ],
        "component": [
          {
            "code": {
              "coding": [
                {
                  "system": "http://loinc.org",
                  "code": "48018-6",
                  "display": "Gene studied [ID]"
                }
              ]
            },
            "valueCodeableConcept": {
              "coding": [
                {
                  "code": "HGNC:583",
                  "system": "http://www.genenames.org/geneId",
                  "display": "APC"
                }
              ]
            }
          },
          {
            "code": {
              "coding": [
                {
                  "system": "http://loinc.org",
                  "code": "81293-3",
                  "display": "Description of ranges of DNA sequences examined"
                }
              ]
            },
            "valueString": "direkte Sequenzierung der codierenden Exons inkl. flankierender intronischer Bereiche"
          },
          {
            "code": {
              "coding": [
                {
                  "system": "http://loinc.org",
                  "code": "51958-7"
                }
              ]
            },
            "valueCodeableConcept": {
              "coding": [
                {
                  "code": "NM_000038.4",
                  "system": "http://www.ncbi.nlm.nih.gov/refseq"
                }
              ]
            }
          }
        ],
        "code": {
          "coding": [
            {
              "system": "http://loinc.org",
              "code": "53041-0",
              "display": "DNA region of interest panel"
            }
          ]
        },
        "status": "final",
        "subject": {
          "reference": "Patient/mii-exa-test-data-patient-4"
        },
        "method": {
          "coding": [
            {
              "code": "LA26398-0",
              "system": "http://loinc.org",
              "display": "Sequencing"
            }
          ]
        },
        "specimen": {
          "reference": "Specimen/mii-exa-test-data-patient-4-specimen-1"
        },
        "device": {
          "reference": "Device/mii-exa-test-data-molgen-device-sequencer"
        }
      }
    },
    {
      "request": {
        "method": "POST",
        "url": "Observation"
      },
      "fullUrl": "https://www.medizininformatik-initiative.de/Observation/mii-exa-test-data-patient-4-molgen-untersuchte-region-2",
      "resource": {
        "resourceType": "Observation",
        "id": "mii-exa-test-data-patient-4-molgen-untersuchte-region-2",
        "meta": {
          "profile": [
            "https://www.medizininformatik-initiative.de/fhir/ext/modul-molgen/StructureDefinition/untersuchte-region",
            "http://hl7.org/fhir/uv/genomics-reporting/StructureDefinition/region-studied"
          ]
        },
        "category": [
          {
            "coding": [
              {
                "system": "http://terminology.hl7.org/CodeSystem/observation-category",
                "code": "laboratory",
                "display": "Laboratory"
              }
            ]
          }
        ],
        "performer": [
          {
            "reference": "Practitioner/mii-exa-test-data-practitioner-physician-2"
          }
        ],
        "component": [
          {
            "code": {
              "coding": [
                {
                  "system": "http://loinc.org",
                  "code": "48018-6",
                  "display": "Gene studied [ID]"
                }
              ]
            },
            "valueCodeableConcept": {
              "coding": [
                {
                  "code": "HGNC:795",
                  "system": "http://www.genenames.org/geneId",
                  "display": "ATM"
                }
              ]
            }
          },
          {
            "code": {
              "coding": [
                {
                  "system": "http://loinc.org",
                  "code": "81293-3",
                  "display": "Description of ranges of DNA sequences examined"
                }
              ]
            },
            "valueString": "direkte Sequenzierung der codierenden Exons inkl. flankierender intronischer Bereiche"
          },
          {
            "code": {
              "coding": [
                {
                  "system": "http://loinc.org",
                  "code": "51958-7"
                }
              ]
            },
            "valueCodeableConcept": {
              "coding": [
                {
                  "code": "NM_000051.3",
                  "system": "http://www.ncbi.nlm.nih.gov/refseq"
                }
              ]
            }
          }
        ],
        "code": {
          "coding": [
            {
              "system": "http://loinc.org",
              "code": "53041-0",
              "display": "DNA region of interest panel"
            }
          ]
        },
        "status": "final",
        "subject": {
          "reference": "Patient/mii-exa-test-data-patient-4"
        },
        "method": {
          "coding": [
            {
              "code": "LA26398-0",
              "system": "http://loinc.org",
              "display": "Sequencing"
            }
          ]
        },
        "specimen": {
          "reference": "Specimen/mii-exa-test-data-patient-4-specimen-1"
        },
        "device": {
          "reference": "Device/mii-exa-test-data-molgen-device-sequencer"
        }
      }
    },
    {
      "request": {
        "method": "POST",
        "url": "Observation"
      },
      "fullUrl": "https://www.medizininformatik-initiative.de/Observation/mii-exa-test-data-patient-4-molgen-untersuchte-region-3",
      "resource": {
        "resourceType": "Observation",
        "id": "mii-exa-test-data-patient-4-molgen-untersuchte-region-3",
        "meta": {
          "profile": [
            "https://www.medizininformatik-initiative.de/fhir/ext/modul-molgen/StructureDefinition/untersuchte-region",
            "http://hl7.org/fhir/uv/genomics-reporting/StructureDefinition/region-studied"
          ]
        },
        "category": [
          {
            "coding": [
              {
                "system": "http://terminology.hl7.org/CodeSystem/observation-category",
                "code": "laboratory",
                "display": "Laboratory"
              }
            ]
          }
        ],
        "performer": [
          {
            "reference": "Practitioner/mii-exa-test-data-practitioner-physician-2"
          }
        ],
        "component": [
          {
            "code": {
              "coding": [
                {
                  "system": "http://loinc.org",
                  "code": "48018-6",
                  "display": "Gene studied [ID]"
                }
              ]
            },
            "valueCodeableConcept": {
              "coding": [
                {
                  "code": "HGNC:1100",
                  "system": "http://www.genenames.org/geneId",
                  "display": "BRCA1"
                }
              ]
            }
          },
          {
            "code": {
              "coding": [
                {
                  "system": "http://loinc.org",
                  "code": "81293-3",
                  "display": "Description of ranges of DNA sequences examined"
                }
              ]
            },
            "valueString": "direkte Sequenzierung der codierenden Exons inkl. flankierender intronischer Bereiche"
          },
          {
            "code": {
              "coding": [
                {
                  "system": "http://loinc.org",
                  "code": "51958-7"
                }
              ]
            },
            "valueCodeableConcept": {
              "coding": [
                {
                  "code": "NM_007294.3",
                  "system": "http://www.ncbi.nlm.nih.gov/refseq"
                }
              ]
            }
          }
        ],
        "code": {
          "coding": [
            {
              "system": "http://loinc.org",
              "code": "53041-0",
              "display": "DNA region of interest panel"
            }
          ]
        },
        "status": "final",
        "subject": {
          "reference": "Patient/mii-exa-test-data-patient-4"
        },
        "method": {
          "coding": [
            {
              "code": "LA26398-0",
              "system": "http://loinc.org",
              "display": "Sequencing"
            }
          ]
        },
        "specimen": {
          "reference": "Specimen/mii-exa-test-data-patient-4-specimen-1"
        },
        "device": {
          "reference": "Device/mii-exa-test-data-molgen-device-sequencer"
        }
      }
    },
    {
      "request": {
        "method": "POST",
        "url": "Observation"
      },
      "fullUrl": "https://www.medizininformatik-initiative.de/Observation/mii-exa-test-data-patient-4-molgen-untersuchte-region-4",
      "resource": {
        "resourceType": "Observation",
        "id": "mii-exa-test-data-patient-4-molgen-untersuchte-region-4",
        "meta": {
          "profile": [
            "https://www.medizininformatik-initiative.de/fhir/ext/modul-molgen/StructureDefinition/untersuchte-region",
            "http://hl7.org/fhir/uv/genomics-reporting/StructureDefinition/region-studied"
          ]
        },
        "category": [
          {
            "coding": [
              {
                "system": "http://terminology.hl7.org/CodeSystem/observation-category",
                "code": "laboratory",
                "display": "Laboratory"
              }
            ]
          }
        ],
        "performer": [
          {
            "reference": "Practitioner/mii-exa-test-data-practitioner-physician-2"
          }
        ],
        "component": [
          {
            "code": {
              "coding": [
                {
                  "system": "http://loinc.org",
                  "code": "48018-6",
                  "display": "Gene studied [ID]"
                }
              ]
            },
            "valueCodeableConcept": {
              "coding": [
                {
                  "code": "HGNC:1101",
                  "system": "http://www.genenames.org/geneId",
                  "display": "BRCA2"
                }
              ]
            }
          },
          {
            "code": {
              "coding": [
                {
                  "system": "http://loinc.org",
                  "code": "81293-3",
                  "display": "Description of ranges of DNA sequences examined"
                }
              ]
            },
            "valueString": "direkte Sequenzierung der codierenden Exons inkl. flankierender intronischer Bereiche"
          },
          {
            "code": {
              "coding": [
                {
                  "system": "http://loinc.org",
                  "code": "51958-7"
                }
              ]
            },
            "valueCodeableConcept": {
              "coding": [
                {
                  "code": "NM_000059.3",
                  "system": "http://www.ncbi.nlm.nih.gov/refseq"
                }
              ]
            }
          }
        ],
        "code": {
          "coding": [
            {
              "system": "http://loinc.org",
              "code": "53041-0",
              "display": "DNA region of interest panel"
            }
          ]
        },
        "status": "final",
        "subject": {
          "reference": "Patient/mii-exa-test-data-patient-4"
        },
        "method": {
          "coding": [
            {
              "code": "LA26398-0",
              "system": "http://loinc.org",
              "display": "Sequencing"
            }
          ]
        },
        "specimen": {
          "reference": "Specimen/mii-exa-test-data-patient-4-specimen-1"
        },
        "device": {
          "reference": "Device/mii-exa-test-data-molgen-device-sequencer"
        }
      }
    },
    {
      "request": {
        "method": "POST",
        "url": "Observation"
      },
      "fullUrl": "https://www.medizininformatik-initiative.de/Observation/mii-exa-test-data-patient-4-molgen-untersuchte-region-5",
      "resource": {
        "resourceType": "Observation",
        "id": "mii-exa-test-data-patient-4-molgen-untersuchte-region-5",
        "meta": {
          "profile": [
            "https://www.medizininformatik-initiative.de/fhir/ext/modul-molgen/StructureDefinition/untersuchte-region",
            "http://hl7.org/fhir/uv/genomics-reporting/StructureDefinition/region-studied"
          ]
        },
        "category": [
          {
            "coding": [
              {
                "system": "http://terminology.hl7.org/CodeSystem/observation-category",
                "code": "laboratory",
                "display": "Laboratory"
              }
            ]
          }
        ],
        "performer": [
          {
            "reference": "Practitioner/mii-exa-test-data-practitioner-physician-2"
          }
        ],
        "component": [
          {
            "code": {
              "coding": [
                {
                  "system": "http://loinc.org",
                  "code": "48018-6",
                  "display": "Gene studied [ID]"
                }
              ]
            },
            "valueCodeableConcept": {
              "coding": [
                {
                  "code": "HGNC:1748",
                  "system": "http://www.genenames.org/geneId",
                  "display": "CDH1"
                }
              ]
            }
          },
          {
            "code": {
              "coding": [
                {
                  "system": "http://loinc.org",
                  "code": "81293-3",
                  "display": "Description of ranges of DNA sequences examined"
                }
              ]
            },
            "valueString": "direkte Sequenzierung der codierenden Exons inkl. flankierender intronischer Bereiche"
          },
          {
            "code": {
              "coding": [
                {
                  "system": "http://loinc.org",
                  "code": "51958-7"
                }
              ]
            },
            "valueCodeableConcept": {
              "coding": [
                {
                  "code": "NM_004360.4",
                  "system": "http://www.ncbi.nlm.nih.gov/refseq"
                }
              ]
            }
          }
        ],
        "code": {
          "coding": [
            {
              "system": "http://loinc.org",
              "code": "53041-0",
              "display": "DNA region of interest panel"
            }
          ]
        },
        "status": "final",
        "subject": {
          "reference": "Patient/mii-exa-test-data-patient-4"
        },
        "method": {
          "coding": [
            {
              "code": "LA26398-0",
              "system": "http://loinc.org",
              "display": "Sequencing"
            }
          ]
        },
        "specimen": {
          "reference": "Specimen/mii-exa-test-data-patient-4-specimen-1"
        },
        "device": {
          "reference": "Device/mii-exa-test-data-molgen-device-sequencer"
        }
      }
    },
    {
      "request": {
        "method": "POST",
        "url": "Observation"
      },
      "fullUrl": "https://www.medizininformatik-initiative.de/Observation/mii-exa-test-data-patient-4-molgen-untersuchte-region-6",
      "resource": {
        "resourceType": "Observation",
        "id": "mii-exa-test-data-patient-4-molgen-untersuchte-region-6",
        "meta": {
          "profile": [
            "https://www.medizininformatik-initiative.de/fhir/ext/modul-molgen/StructureDefinition/untersuchte-region",
            "http://hl7.org/fhir/uv/genomics-reporting/StructureDefinition/region-studied"
          ]
        },
        "category": [
          {
            "coding": [
              {
                "system": "http://terminology.hl7.org/CodeSystem/observation-category",
                "code": "laboratory",
                "display": "Laboratory"
              }
            ]
          }
        ],
        "performer": [
          {
            "reference": "Practitioner/mii-exa-test-data-practitioner-physician-2"
          }
        ],
        "component": [
          {
            "code": {
              "coding": [
                {
                  "system": "http://loinc.org",
                  "code": "48018-6",
                  "display": "Gene studied [ID]"
                }
              ]
            },
            "valueCodeableConcept": {
              "coding": [
                {
                  "code": "HGNC:7127",
                  "system": "http://www.genenames.org/geneId",
                  "display": "MLH1"
                }
              ]
            }
          },
          {
            "code": {
              "coding": [
                {
                  "system": "http://loinc.org",
                  "code": "81293-3",
                  "display": "Description of ranges of DNA sequences examined"
                }
              ]
            },
            "valueString": "direkte Sequenzierung der codierenden Exons inkl. flankierender intronischer Bereiche"
          },
          {
            "code": {
              "coding": [
                {
                  "system": "http://loinc.org",
                  "code": "51958-7"
                }
              ]
            },
            "valueCodeableConcept": {
              "coding": [
                {
                  "code": "NM_000249.3",
                  "system": "http://www.ncbi.nlm.nih.gov/refseq"
                }
              ]
            }
          }
        ],
        "code": {
          "coding": [
            {
              "system": "http://loinc.org",
              "code": "53041-0",
              "display": "DNA region of interest panel"
            }
          ]
        },
        "status": "final",
        "subject": {
          "reference": "Patient/mii-exa-test-data-patient-4"
        },
        "method": {
          "coding": [
            {
              "code": "LA26398-0",
              "system": "http://loinc.org",
              "display": "Sequencing"
            }
          ]
        },
        "specimen": {
          "reference": "Specimen/mii-exa-test-data-patient-4-specimen-1"
        },
        "device": {
          "reference": "Device/mii-exa-test-data-molgen-device-sequencer"
        }
      }
    },
    {
      "request": {
        "method": "POST",
        "url": "Observation"
      },
      "fullUrl": "https://www.medizininformatik-initiative.de/Observation/mii-exa-test-data-patient-4-molgen-untersuchte-region-7",
      "resource": {
        "resourceType": "Observation",
        "id": "mii-exa-test-data-patient-4-molgen-untersuchte-region-7",
        "meta": {
          "profile": [
            "https://www.medizininformatik-initiative.de/fhir/ext/modul-molgen/StructureDefinition/untersuchte-region",
            "http://hl7.org/fhir/uv/genomics-reporting/StructureDefinition/region-studied"
          ]
        },
        "category": [
          {
            "coding": [
              {
                "system": "http://terminology.hl7.org/CodeSystem/observation-category",
                "code": "laboratory",
                "display": "Laboratory"
              }
            ]
          }
        ],
        "performer": [
          {
            "reference": "Practitioner/mii-exa-test-data-practitioner-physician-2"
          }
        ],
        "component": [
          {
            "code": {
              "coding": [
                {
                  "system": "http://loinc.org",
                  "code": "48018-6",
                  "display": "Gene studied [ID]"
                }
              ]
            },
            "valueCodeableConcept": {
              "coding": [
                {
                  "code": "HGNC:7325",
                  "system": "http://www.genenames.org/geneId",
                  "display": "MSH2"
                }
              ]
            }
          },
          {
            "code": {
              "coding": [
                {
                  "system": "http://loinc.org",
                  "code": "81293-3",
                  "display": "Description of ranges of DNA sequences examined"
                }
              ]
            },
            "valueString": "direkte Sequenzierung der codierenden Exons inkl. flankierender intronischer Bereiche"
          },
          {
            "code": {
              "coding": [
                {
                  "system": "http://loinc.org",
                  "code": "51958-7"
                }
              ]
            },
            "valueCodeableConcept": {
              "coding": [
                {
                  "code": "NM_000251.2",
                  "system": "http://www.ncbi.nlm.nih.gov/refseq"
                }
              ]
            }
          }
        ],
        "code": {
          "coding": [
            {
              "system": "http://loinc.org",
              "code": "53041-0",
              "display": "DNA region of interest panel"
            }
          ]
        },
        "status": "final",
        "subject": {
          "reference": "Patient/mii-exa-test-data-patient-4"
        },
        "method": {
          "coding": [
            {
              "code": "LA26398-0",
              "system": "http://loinc.org",
              "display": "Sequencing"
            }
          ]
        },
        "specimen": {
          "reference": "Specimen/mii-exa-test-data-patient-4-specimen-1"
        },
        "device": {
          "reference": "Device/mii-exa-test-data-molgen-device-sequencer"
        }
      }
    },
    {
      "request": {
        "method": "POST",
        "url": "Observation"
      },
      "fullUrl": "https://www.medizininformatik-initiative.de/Observation/mii-exa-test-data-patient-4-molgen-untersuchte-region-8",
      "resource": {
        "resourceType": "Observation",
        "id": "mii-exa-test-data-patient-4-molgen-untersuchte-region-8",
        "meta": {
          "profile": [
            "https://www.medizininformatik-initiative.de/fhir/ext/modul-molgen/StructureDefinition/untersuchte-region",
            "http://hl7.org/fhir/uv/genomics-reporting/StructureDefinition/region-studied"
          ]
        },
        "category": [
          {
            "coding": [
              {
                "system": "http://terminology.hl7.org/CodeSystem/observation-category",
                "code": "laboratory",
                "display": "Laboratory"
              }
            ]
          }
        ],
        "performer": [
          {
            "reference": "Practitioner/mii-exa-test-data-practitioner-physician-2"
          }
        ],
        "component": [
          {
            "code": {
              "coding": [
                {
                  "system": "http://loinc.org",
                  "code": "48018-6",
                  "display": "Gene studied [ID]"
                }
              ]
            },
            "valueCodeableConcept": {
              "coding": [
                {
                  "code": "HGNC:7326",
                  "system": "http://www.genenames.org/geneId",
                  "display": "MSH3"
                }
              ]
            }
          },
          {
            "code": {
              "coding": [
                {
                  "system": "http://loinc.org",
                  "code": "81293-3",
                  "display": "Description of ranges of DNA sequences examined"
                }
              ]
            },
            "valueString": "direkte Sequenzierung der codierenden Exons inkl. flankierender intronischer Bereiche"
          },
          {
            "code": {
              "coding": [
                {
                  "system": "http://loinc.org",
                  "code": "51958-7"
                }
              ]
            },
            "valueCodeableConcept": {
              "coding": [
                {
                  "code": "NM_002439.4",
                  "system": "http://www.ncbi.nlm.nih.gov/refseq"
                }
              ]
            }
          }
        ],
        "code": {
          "coding": [
            {
              "system": "http://loinc.org",
              "code": "53041-0",
              "display": "DNA region of interest panel"
            }
          ]
        },
        "status": "final",
        "subject": {
          "reference": "Patient/mii-exa-test-data-patient-4"
        },
        "method": {
          "coding": [
            {
              "code": "LA26398-0",
              "system": "http://loinc.org",
              "display": "Sequencing"
            }
          ]
        },
        "specimen": {
          "reference": "Specimen/mii-exa-test-data-patient-4-specimen-1"
        },
        "device": {
          "reference": "Device/mii-exa-test-data-molgen-device-sequencer"
        }
      }
    },
    {
      "request": {
        "method": "POST",
        "url": "Observation"
      },
      "fullUrl": "https://www.medizininformatik-initiative.de/Observation/mii-exa-test-data-patient-4-molgen-untersuchte-region-9",
      "resource": {
        "resourceType": "Observation",
        "id": "mii-exa-test-data-patient-4-molgen-untersuchte-region-9",
        "meta": {
          "profile": [
            "https://www.medizininformatik-initiative.de/fhir/ext/modul-molgen/StructureDefinition/untersuchte-region",
            "http://hl7.org/fhir/uv/genomics-reporting/StructureDefinition/region-studied"
          ]
        },
        "category": [
          {
            "coding": [
              {
                "system": "http://terminology.hl7.org/CodeSystem/observation-category",
                "code": "laboratory",
                "display": "Laboratory"
              }
            ]
          }
        ],
        "performer": [
          {
            "reference": "Practitioner/mii-exa-test-data-practitioner-physician-2"
          }
        ],
        "component": [
          {
            "code": {
              "coding": [
                {
                  "system": "http://loinc.org",
                  "code": "48018-6",
                  "display": "Gene studied [ID]"
                }
              ]
            },
            "valueCodeableConcept": {
              "coding": [
                {
                  "code": "HGNC:7329",
                  "system": "http://www.genenames.org/geneId",
                  "display": "MSH6"
                }
              ]
            }
          },
          {
            "code": {
              "coding": [
                {
                  "system": "http://loinc.org",
                  "code": "81293-3",
                  "display": "Description of ranges of DNA sequences examined"
                }
              ]
            },
            "valueString": "direkte Sequenzierung der codierenden Exons inkl. flankierender intronischer Bereiche"
          },
          {
            "code": {
              "coding": [
                {
                  "system": "http://loinc.org",
                  "code": "51958-7"
                }
              ]
            },
            "valueCodeableConcept": {
              "coding": [
                {
                  "code": "NM_000179.2",
                  "system": "http://www.ncbi.nlm.nih.gov/refseq"
                }
              ]
            }
          }
        ],
        "code": {
          "coding": [
            {
              "system": "http://loinc.org",
              "code": "53041-0",
              "display": "DNA region of interest panel"
            }
          ]
        },
        "status": "final",
        "subject": {
          "reference": "Patient/mii-exa-test-data-patient-4"
        },
        "method": {
          "coding": [
            {
              "code": "LA26398-0",
              "system": "http://loinc.org",
              "display": "Sequencing"
            }
          ]
        },
        "specimen": {
          "reference": "Specimen/mii-exa-test-data-patient-4-specimen-1"
        },
        "device": {
          "reference": "Device/mii-exa-test-data-molgen-device-sequencer"
        }
      }
    },
    {
      "request": {
        "method": "POST",
        "url": "Observation"
      },
      "fullUrl": "https://www.medizininformatik-initiative.de/Observation/mii-exa-test-data-patient-4-molgen-untersuchte-region-10",
      "resource": {
        "resourceType": "Observation",
        "id": "mii-exa-test-data-patient-4-molgen-untersuchte-region-10",
        "meta": {
          "profile": [
            "https://www.medizininformatik-initiative.de/fhir/ext/modul-molgen/StructureDefinition/untersuchte-region",
            "http://hl7.org/fhir/uv/genomics-reporting/StructureDefinition/region-studied"
          ]
        },
        "category": [
          {
            "coding": [
              {
                "system": "http://terminology.hl7.org/CodeSystem/observation-category",
                "code": "laboratory",
                "display": "Laboratory"
              }
            ]
          }
        ],
        "performer": [
          {
            "reference": "Practitioner/mii-exa-test-data-practitioner-physician-2"
          }
        ],
        "component": [
          {
            "code": {
              "coding": [
                {
                  "system": "http://loinc.org",
                  "code": "48018-6",
                  "display": "Gene studied [ID]"
                }
              ]
            },
            "valueCodeableConcept": {
              "coding": [
                {
                  "code": "HGNC:7527",
                  "system": "http://www.genenames.org/geneId",
                  "display": "MUTYH"
                }
              ]
            }
          },
          {
            "code": {
              "coding": [
                {
                  "system": "http://loinc.org",
                  "code": "81293-3",
                  "display": "Description of ranges of DNA sequences examined"
                }
              ]
            },
            "valueString": "direkte Sequenzierung der codierenden Exons inkl. flankierender intronischer Bereiche"
          },
          {
            "code": {
              "coding": [
                {
                  "system": "http://loinc.org",
                  "code": "51958-7"
                }
              ]
            },
            "valueCodeableConcept": {
              "coding": [
                {
                  "code": "NM_001128425.1",
                  "system": "http://www.ncbi.nlm.nih.gov/refseq"
                }
              ]
            }
          }
        ],
        "code": {
          "coding": [
            {
              "system": "http://loinc.org",
              "code": "53041-0",
              "display": "DNA region of interest panel"
            }
          ]
        },
        "status": "final",
        "subject": {
          "reference": "Patient/mii-exa-test-data-patient-4"
        },
        "method": {
          "coding": [
            {
              "code": "LA26398-0",
              "system": "http://loinc.org",
              "display": "Sequencing"
            }
          ]
        },
        "specimen": {
          "reference": "Specimen/mii-exa-test-data-patient-4-specimen-1"
        },
        "device": {
          "reference": "Device/mii-exa-test-data-molgen-device-sequencer"
        }
      }
    },
    {
      "request": {
        "method": "POST",
        "url": "Observation"
      },
      "fullUrl": "https://www.medizininformatik-initiative.de/Observation/mii-exa-test-data-patient-4-molgen-untersuchte-region-11",
      "resource": {
        "resourceType": "Observation",
        "id": "mii-exa-test-data-patient-4-molgen-untersuchte-region-11",
        "meta": {
          "profile": [
            "https://www.medizininformatik-initiative.de/fhir/ext/modul-molgen/StructureDefinition/untersuchte-region",
            "http://hl7.org/fhir/uv/genomics-reporting/StructureDefinition/region-studied"
          ]
        },
        "category": [
          {
            "coding": [
              {
                "system": "http://terminology.hl7.org/CodeSystem/observation-category",
                "code": "laboratory",
                "display": "Laboratory"
              }
            ]
          }
        ],
        "performer": [
          {
            "reference": "Practitioner/mii-exa-test-data-practitioner-physician-2"
          }
        ],
        "component": [
          {
            "code": {
              "coding": [
                {
                  "system": "http://loinc.org",
                  "code": "48018-6",
                  "display": "Gene studied [ID]"
                }
              ]
            },
            "valueCodeableConcept": {
              "coding": [
                {
                  "code": "HGNC:8028",
                  "system": "http://www.genenames.org/geneId",
                  "display": "NTHL1"
                }
              ]
            }
          },
          {
            "code": {
              "coding": [
                {
                  "system": "http://loinc.org",
                  "code": "81293-3",
                  "display": "Description of ranges of DNA sequences examined"
                }
              ]
            },
            "valueString": "direkte Sequenzierung der codierenden Exons inkl. flankierender intronischer Bereiche"
          },
          {
            "code": {
              "coding": [
                {
                  "system": "http://loinc.org",
                  "code": "51958-7"
                }
              ]
            },
            "valueCodeableConcept": {
              "coding": [
                {
                  "code": "NM_002528.7",
                  "system": "http://www.ncbi.nlm.nih.gov/refseq"
                }
              ]
            }
          }
        ],
        "code": {
          "coding": [
            {
              "system": "http://loinc.org",
              "code": "53041-0",
              "display": "DNA region of interest panel"
            }
          ]
        },
        "status": "final",
        "subject": {
          "reference": "Patient/mii-exa-test-data-patient-4"
        },
        "method": {
          "coding": [
            {
              "code": "LA26398-0",
              "system": "http://loinc.org",
              "display": "Sequencing"
            }
          ]
        },
        "specimen": {
          "reference": "Specimen/mii-exa-test-data-patient-4-specimen-1"
        },
        "device": {
          "reference": "Device/mii-exa-test-data-molgen-device-sequencer"
        }
      }
    },
    {
      "request": {
        "method": "POST",
        "url": "Observation"
      },
      "fullUrl": "https://www.medizininformatik-initiative.de/Observation/mii-exa-test-data-patient-4-molgen-untersuchte-region-12",
      "resource": {
        "resourceType": "Observation",
        "id": "mii-exa-test-data-patient-4-molgen-untersuchte-region-12",
        "meta": {
          "profile": [
            "https://www.medizininformatik-initiative.de/fhir/ext/modul-molgen/StructureDefinition/untersuchte-region",
            "http://hl7.org/fhir/uv/genomics-reporting/StructureDefinition/region-studied"
          ]
        },
        "category": [
          {
            "coding": [
              {
                "system": "http://terminology.hl7.org/CodeSystem/observation-category",
                "code": "laboratory",
                "display": "Laboratory"
              }
            ]
          }
        ],
        "performer": [
          {
            "reference": "Practitioner/mii-exa-test-data-practitioner-physician-2"
          }
        ],
        "component": [
          {
            "code": {
              "coding": [
                {
                  "system": "http://loinc.org",
                  "code": "48018-6",
                  "display": "Gene studied [ID]"
                }
              ]
            },
            "valueCodeableConcept": {
              "coding": [
                {
                  "code": "HGNC:9122",
                  "system": "http://www.genenames.org/geneId",
                  "display": "PMS2"
                }
              ]
            }
          },
          {
            "code": {
              "coding": [
                {
                  "system": "http://loinc.org",
                  "code": "81293-3",
                  "display": "Description of ranges of DNA sequences examined"
                }
              ]
            },
            "valueString": "direkte Sequenzierung der codierenden Exons inkl. flankierender intronischer Bereiche"
          },
          {
            "code": {
              "coding": [
                {
                  "system": "http://loinc.org",
                  "code": "51958-7"
                }
              ]
            },
            "valueCodeableConcept": {
              "coding": [
                {
                  "code": "NM_000535.5",
                  "system": "http://www.ncbi.nlm.nih.gov/refseq"
                }
              ]
            }
          }
        ],
        "code": {
          "coding": [
            {
              "system": "http://loinc.org",
              "code": "53041-0",
              "display": "DNA region of interest panel"
            }
          ]
        },
        "status": "final",
        "subject": {
          "reference": "Patient/mii-exa-test-data-patient-4"
        },
        "method": {
          "coding": [
            {
              "code": "LA26398-0",
              "system": "http://loinc.org",
              "display": "Sequencing"
            }
          ]
        },
        "specimen": {
          "reference": "Specimen/mii-exa-test-data-patient-4-specimen-1"
        },
        "device": {
          "reference": "Device/mii-exa-test-data-molgen-device-sequencer"
        }
      }
    },
    {
      "request": {
        "method": "POST",
        "url": "Observation"
      },
      "fullUrl": "https://www.medizininformatik-initiative.de/Observation/mii-exa-test-data-patient-4-molgen-untersuchte-region-13",
      "resource": {
        "resourceType": "Observation",
        "id": "mii-exa-test-data-patient-4-molgen-untersuchte-region-13",
        "meta": {
          "profile": [
            "https://www.medizininformatik-initiative.de/fhir/ext/modul-molgen/StructureDefinition/untersuchte-region",
            "http://hl7.org/fhir/uv/genomics-reporting/StructureDefinition/region-studied"
          ]
        },
        "category": [
          {
            "coding": [
              {
                "system": "http://terminology.hl7.org/CodeSystem/observation-category",
                "code": "laboratory",
                "display": "Laboratory"
              }
            ]
          }
        ],
        "performer": [
          {
            "reference": "Practitioner/mii-exa-test-data-practitioner-physician-2"
          }
        ],
        "component": [
          {
            "code": {
              "coding": [
                {
                  "system": "http://loinc.org",
                  "code": "48018-6",
                  "display": "Gene studied [ID]"
                }
              ]
            },
            "valueCodeableConcept": {
              "coding": [
                {
                  "code": "HGNC:9175",
                  "system": "http://www.genenames.org/geneId",
                  "display": "POLD1"
                }
              ]
            }
          },
          {
            "code": {
              "coding": [
                {
                  "system": "http://loinc.org",
                  "code": "81293-3",
                  "display": "Description of ranges of DNA sequences examined"
                }
              ]
            },
            "valueString": "direkte Sequenzierung der codierenden Exons inkl. flankierender intronischer Bereiche"
          },
          {
            "code": {
              "coding": [
                {
                  "system": "http://loinc.org",
                  "code": "51958-7"
                }
              ]
            },
            "valueCodeableConcept": {
              "coding": [
                {
                  "code": "NM_001256849.1",
                  "system": "http://www.ncbi.nlm.nih.gov/refseq"
                }
              ]
            }
          }
        ],
        "code": {
          "coding": [
            {
              "system": "http://loinc.org",
              "code": "53041-0",
              "display": "DNA region of interest panel"
            }
          ]
        },
        "status": "final",
        "subject": {
          "reference": "Patient/mii-exa-test-data-patient-4"
        },
        "method": {
          "coding": [
            {
              "code": "LA26398-0",
              "system": "http://loinc.org",
              "display": "Sequencing"
            }
          ]
        },
        "specimen": {
          "reference": "Specimen/mii-exa-test-data-patient-4-specimen-1"
        },
        "device": {
          "reference": "Device/mii-exa-test-data-molgen-device-sequencer"
        }
      }
    },
    {
      "request": {
        "method": "POST",
        "url": "Observation"
      },
      "fullUrl": "https://www.medizininformatik-initiative.de/Observation/mii-exa-test-data-patient-4-molgen-untersuchte-region-14",
      "resource": {
        "resourceType": "Observation",
        "id": "mii-exa-test-data-patient-4-molgen-untersuchte-region-14",
        "meta": {
          "profile": [
            "https://www.medizininformatik-initiative.de/fhir/ext/modul-molgen/StructureDefinition/untersuchte-region",
            "http://hl7.org/fhir/uv/genomics-reporting/StructureDefinition/region-studied"
          ]
        },
        "category": [
          {
            "coding": [
              {
                "system": "http://terminology.hl7.org/CodeSystem/observation-category",
                "code": "laboratory",
                "display": "Laboratory"
              }
            ]
          }
        ],
        "performer": [
          {
            "reference": "Practitioner/mii-exa-test-data-practitioner-physician-2"
          }
        ],
        "component": [
          {
            "code": {
              "coding": [
                {
                  "system": "http://loinc.org",
                  "code": "48018-6",
                  "display": "Gene studied [ID]"
                }
              ]
            },
            "valueCodeableConcept": {
              "coding": [
                {
                  "code": "HGNC:9177",
                  "system": "http://www.genenames.org/geneId",
                  "display": "POLE"
                }
              ]
            }
          },
          {
            "code": {
              "coding": [
                {
                  "system": "http://loinc.org",
                  "code": "81293-3",
                  "display": "Description of ranges of DNA sequences examined"
                }
              ]
            },
            "valueString": "direkte Sequenzierung der codierenden Exons inkl. flankierender intronischer Bereiche"
          },
          {
            "code": {
              "coding": [
                {
                  "system": "http://loinc.org",
                  "code": "51958-7"
                }
              ]
            },
            "valueCodeableConcept": {
              "coding": [
                {
                  "code": "NM_006231.3",
                  "system": "http://www.ncbi.nlm.nih.gov/refseq"
                }
              ]
            }
          }
        ],
        "code": {
          "coding": [
            {
              "system": "http://loinc.org",
              "code": "53041-0",
              "display": "DNA region of interest panel"
            }
          ]
        },
        "status": "final",
        "subject": {
          "reference": "Patient/mii-exa-test-data-patient-4"
        },
        "method": {
          "coding": [
            {
              "code": "LA26398-0",
              "system": "http://loinc.org",
              "display": "Sequencing"
            }
          ]
        },
        "specimen": {
          "reference": "Specimen/mii-exa-test-data-patient-4-specimen-1"
        },
        "device": {
          "reference": "Device/mii-exa-test-data-molgen-device-sequencer"
        }
      }
    },
    {
      "request": {
        "method": "POST",
        "url": "Observation"
      },
      "fullUrl": "https://www.medizininformatik-initiative.de/Observation/mii-exa-test-data-patient-4-molgen-untersuchte-region-15",
      "resource": {
        "resourceType": "Observation",
        "id": "mii-exa-test-data-patient-4-molgen-untersuchte-region-15",
        "meta": {
          "profile": [
            "https://www.medizininformatik-initiative.de/fhir/ext/modul-molgen/StructureDefinition/untersuchte-region",
            "http://hl7.org/fhir/uv/genomics-reporting/StructureDefinition/region-studied"
          ]
        },
        "category": [
          {
            "coding": [
              {
                "system": "http://terminology.hl7.org/CodeSystem/observation-category",
                "code": "laboratory",
                "display": "Laboratory"
              }
            ]
          }
        ],
        "performer": [
          {
            "reference": "Practitioner/mii-exa-test-data-practitioner-physician-2"
          }
        ],
        "component": [
          {
            "code": {
              "coding": [
                {
                  "system": "http://loinc.org",
                  "code": "48018-6",
                  "display": "Gene studied [ID]"
                }
              ]
            },
            "valueCodeableConcept": {
              "coding": [
                {
                  "code": "HGNC:11389",
                  "system": "http://www.genenames.org/geneId",
                  "display": "STK11"
                }
              ]
            }
          },
          {
            "code": {
              "coding": [
                {
                  "system": "http://loinc.org",
                  "code": "81293-3",
                  "display": "Description of ranges of DNA sequences examined"
                }
              ]
            },
            "valueString": "direkte Sequenzierung der codierenden Exons inkl. flankierender intronischer Bereiche"
          },
          {
            "code": {
              "coding": [
                {
                  "system": "http://loinc.org",
                  "code": "51958-7"
                }
              ]
            },
            "valueCodeableConcept": {
              "coding": [
                {
                  "code": "NM_000455.4",
                  "system": "http://www.ncbi.nlm.nih.gov/refseq"
                }
              ]
            }
          }
        ],
        "code": {
          "coding": [
            {
              "system": "http://loinc.org",
              "code": "53041-0",
              "display": "DNA region of interest panel"
            }
          ]
        },
        "status": "final",
        "subject": {
          "reference": "Patient/mii-exa-test-data-patient-4"
        },
        "method": {
          "coding": [
            {
              "code": "LA26398-0",
              "system": "http://loinc.org",
              "display": "Sequencing"
            }
          ]
        },
        "specimen": {
          "reference": "Specimen/mii-exa-test-data-patient-4-specimen-1"
        },
        "device": {
          "reference": "Device/mii-exa-test-data-molgen-device-sequencer"
        }
      }
    },
    {
      "request": {
        "method": "POST",
        "url": "Observation"
      },
      "fullUrl": "https://www.medizininformatik-initiative.de/Observation/mii-exa-test-data-patient-4-molgen-untersuchte-region-16",
      "resource": {
        "resourceType": "Observation",
        "id": "mii-exa-test-data-patient-4-molgen-untersuchte-region-16",
        "meta": {
          "profile": [
            "https://www.medizininformatik-initiative.de/fhir/ext/modul-molgen/StructureDefinition/untersuchte-region",
            "http://hl7.org/fhir/uv/genomics-reporting/StructureDefinition/region-studied"
          ]
        },
        "category": [
          {
            "coding": [
              {
                "system": "http://terminology.hl7.org/CodeSystem/observation-category",
                "code": "laboratory",
                "display": "Laboratory"
              }
            ]
          }
        ],
        "performer": [
          {
            "reference": "Practitioner/mii-exa-test-data-practitioner-physician-2"
          }
        ],
        "component": [
          {
            "code": {
              "coding": [
                {
                  "system": "http://loinc.org",
                  "code": "48018-6",
                  "display": "Gene studied [ID]"
                }
              ]
            },
            "valueCodeableConcept": {
              "coding": [
                {
                  "code": "HGNC:6770",
                  "system": "http://www.genenames.org/geneId",
                  "display": "SMAD4"
                }
              ]
            }
          },
          {
            "code": {
              "coding": [
                {
                  "system": "http://loinc.org",
                  "code": "81293-3",
                  "display": "Description of ranges of DNA sequences examined"
                }
              ]
            },
            "valueString": "direkte Sequenzierung der codierenden Exons inkl. flankierender intronischer Bereiche"
          },
          {
            "code": {
              "coding": [
                {
                  "system": "http://loinc.org",
                  "code": "51958-7"
                }
              ]
            },
            "valueCodeableConcept": {
              "coding": [
                {
                  "code": "NM_005359.5",
                  "system": "http://www.ncbi.nlm.nih.gov/refseq"
                }
              ]
            }
          }
        ],
        "code": {
          "coding": [
            {
              "system": "http://loinc.org",
              "code": "53041-0",
              "display": "DNA region of interest panel"
            }
          ]
        },
        "status": "final",
        "subject": {
          "reference": "Patient/mii-exa-test-data-patient-4"
        },
        "method": {
          "coding": [
            {
              "code": "LA26398-0",
              "system": "http://loinc.org",
              "display": "Sequencing"
            }
          ]
        },
        "specimen": {
          "reference": "Specimen/mii-exa-test-data-patient-4-specimen-1"
        },
        "device": {
          "reference": "Device/mii-exa-test-data-molgen-device-sequencer"
        }
      }
    },
    {
      "request": {
        "method": "POST",
        "url": "Observation"
      },
      "fullUrl": "https://www.medizininformatik-initiative.de/Observation/mii-exa-test-data-patient-4-molgen-untersuchte-region-17",
      "resource": {
        "resourceType": "Observation",
        "id": "mii-exa-test-data-patient-4-molgen-untersuchte-region-17",
        "meta": {
          "profile": [
            "https://www.medizininformatik-initiative.de/fhir/ext/modul-molgen/StructureDefinition/untersuchte-region",
            "http://hl7.org/fhir/uv/genomics-reporting/StructureDefinition/region-studied"
          ]
        },
        "category": [
          {
            "coding": [
              {
                "system": "http://terminology.hl7.org/CodeSystem/observation-category",
                "code": "laboratory",
                "display": "Laboratory"
              }
            ]
          }
        ],
        "performer": [
          {
            "reference": "Practitioner/mii-exa-test-data-practitioner-physician-2"
          }
        ],
        "component": [
          {
            "code": {
              "coding": [
                {
                  "system": "http://loinc.org",
                  "code": "48018-6",
                  "display": "Gene studied [ID]"
                }
              ]
            },
            "valueCodeableConcept": {
              "coding": [
                {
                  "code": "HGNC:11998",
                  "system": "http://www.genenames.org/geneId",
                  "display": "TP53"
                }
              ]
            }
          },
          {
            "code": {
              "coding": [
                {
                  "system": "http://loinc.org",
                  "code": "81293-3",
                  "display": "Description of ranges of DNA sequences examined"
                }
              ]
            },
            "valueString": "direkte Sequenzierung der codierenden Exons inkl. flankierender intronischer Bereiche"
          },
          {
            "code": {
              "coding": [
                {
                  "system": "http://loinc.org",
                  "code": "51958-7"
                }
              ]
            },
            "valueCodeableConcept": {
              "coding": [
                {
                  "code": "NM_000546.5",
                  "system": "http://www.ncbi.nlm.nih.gov/refseq"
                }
              ]
            }
          }
        ],
        "code": {
          "coding": [
            {
              "system": "http://loinc.org",
              "code": "53041-0",
              "display": "DNA region of interest panel"
            }
          ]
        },
        "status": "final",
        "subject": {
          "reference": "Patient/mii-exa-test-data-patient-4"
        },
        "method": {
          "coding": [
            {
              "code": "LA26398-0",
              "system": "http://loinc.org",
              "display": "Sequencing"
            }
          ]
        },
        "specimen": {
          "reference": "Specimen/mii-exa-test-data-patient-4-specimen-1"
        },
        "device": {
          "reference": "Device/mii-exa-test-data-molgen-device-sequencer"
        }
      }
    },
    {
      "request": {
        "method": "POST",
        "url": "Observation"
      },
      "fullUrl": "https://www.medizininformatik-initiative.de/Observation/mii-exa-test-data-patient-4-molgen-untersuchte-region-18",
      "resource": {
        "resourceType": "Observation",
        "id": "mii-exa-test-data-patient-4-molgen-untersuchte-region-18",
        "meta": {
          "profile": [
            "https://www.medizininformatik-initiative.de/fhir/ext/modul-molgen/StructureDefinition/untersuchte-region",
            "http://hl7.org/fhir/uv/genomics-reporting/StructureDefinition/region-studied"
          ]
        },
        "category": [
          {
            "coding": [
              {
                "system": "http://terminology.hl7.org/CodeSystem/observation-category",
                "code": "laboratory",
                "display": "Laboratory"
              }
            ]
          }
        ],
        "performer": [
          {
            "reference": "Practitioner/mii-exa-test-data-practitioner-physician-2"
          }
        ],
        "component": [
          {
            "code": {
              "coding": [
                {
                  "system": "http://loinc.org",
                  "code": "48018-6",
                  "display": "Gene studied [ID]"
                }
              ]
            },
            "valueCodeableConcept": {
              "coding": [
                {
                  "code": "HGNC:2509",
                  "system": "http://www.genenames.org/geneId",
                  "display": "CTNNA1"
                }
              ]
            }
          },
          {
            "code": {
              "coding": [
                {
                  "system": "http://loinc.org",
                  "code": "81293-3",
                  "display": "Description of ranges of DNA sequences examined"
                }
              ]
            },
            "valueString": "direkte Sequenzierung der codierenden Exons inkl. flankierender intronischer Bereiche"
          },
          {
            "code": {
              "coding": [
                {
                  "system": "http://loinc.org",
                  "code": "51958-7"
                }
              ]
            },
            "valueCodeableConcept": {
              "coding": [
                {
                  "code": "NM_001903.5",
                  "system": "http://www.ncbi.nlm.nih.gov/refseq"
                }
              ]
            }
          }
        ],
        "code": {
          "coding": [
            {
              "system": "http://loinc.org",
              "code": "53041-0",
              "display": "DNA region of interest panel"
            }
          ]
        },
        "status": "final",
        "subject": {
          "reference": "Patient/mii-exa-test-data-patient-4"
        },
        "method": {
          "coding": [
            {
              "code": "LA26398-0",
              "system": "http://loinc.org",
              "display": "Sequencing"
            }
          ]
        },
        "specimen": {
          "reference": "Specimen/mii-exa-test-data-patient-4-specimen-1"
        },
        "device": {
          "reference": "Device/mii-exa-test-data-molgen-device-sequencer"
        }
      }
    },
    {
      "request": {
        "method": "POST",
        "url": "DiagnosticReport"
      },
      "fullUrl": "https://www.medizininformatik-initiative.de/DiagnosticReport/mii-exa-test-data-patient-4-molgen-befundbericht-1",
      "resource": {
        "resourceType": "DiagnosticReport",
        "id": "mii-exa-test-data-patient-4-molgen-befundbericht-1",
        "meta": {
          "profile": [
            "https://www.medizininformatik-initiative.de/fhir/ext/modul-molgen/StructureDefinition/molekulargenetischer-befundbericht",
            "http://hl7.org/fhir/uv/genomics-reporting/StructureDefinition/genomics-report"
          ]
        },
        "extension": [
          {
            "url": "http://hl7.org/fhir/StructureDefinition/workflow-supportingInfo",
            "valueReference": {
              "reference": "FamilyMemberHistory/mii-exa-test-data-patient-4-molgen-family-member-history-1"
            }
          }
        ],
        "basedOn": [
          {
            "reference": "ServiceRequest/mii-exa-test-data-patient-4-molgen-anforderung-1"
          }
        ],
        "category": [
          {
            "coding": [
              {
                "system": "http://terminology.hl7.org/CodeSystem/v2-0074",
                "code": "GE",
                "display": "Genetics"
              }
            ]
          }
        ],
        "performer": [
          {
            "reference": "Practitioner/mii-exa-test-data-practitioner-physician-2"
          }
        ],
        "specimen": [
          {
            "reference": "Specimen/mii-exa-test-data-patient-4-specimen-1"
          },
          {
            "reference": "Specimen/mii-exa-test-data-patient-4-specimen-2"
          }
        ],
        "result": [
          {
            "reference": "Observation/mii-exa-test-data-patient-4-molgen-diagnostische-implikation-1"
          },
          {
            "reference": "Observation/mii-exa-test-data-patient-4-molgen-variante-1"
          },
          {
            "reference": "Observation/mii-exa-test-data-patient-4-molgen-untersuchte-region-1"
          },
          {
            "reference": "Observation/mii-exa-test-data-patient-4-molgen-untersuchte-region-2"
          },
          {
            "reference": "Observation/mii-exa-test-data-patient-4-molgen-untersuchte-region-3"
          },
          {
            "reference": "Observation/mii-exa-test-data-patient-4-molgen-untersuchte-region-4"
          },
          {
            "reference": "Observation/mii-exa-test-data-patient-4-molgen-untersuchte-region-5"
          },
          {
            "reference": "Observation/mii-exa-test-data-patient-4-molgen-untersuchte-region-6"
          },
          {
            "reference": "Observation/mii-exa-test-data-patient-4-molgen-untersuchte-region-7"
          },
          {
            "reference": "Observation/mii-exa-test-data-patient-4-molgen-untersuchte-region-8"
          },
          {
            "reference": "Observation/mii-exa-test-data-patient-4-molgen-untersuchte-region-9"
          },
          {
            "reference": "Observation/mii-exa-test-data-patient-4-molgen-untersuchte-region-10"
          },
          {
            "reference": "Observation/mii-exa-test-data-patient-4-molgen-untersuchte-region-11"
          },
          {
            "reference": "Observation/mii-exa-test-data-patient-4-molgen-untersuchte-region-12"
          },
          {
            "reference": "Observation/mii-exa-test-data-patient-4-molgen-untersuchte-region-13"
          },
          {
            "reference": "Observation/mii-exa-test-data-patient-4-molgen-untersuchte-region-14"
          },
          {
            "reference": "Observation/mii-exa-test-data-patient-4-molgen-untersuchte-region-15"
          },
          {
            "reference": "Observation/mii-exa-test-data-patient-4-molgen-untersuchte-region-16"
          },
          {
            "reference": "Observation/mii-exa-test-data-patient-4-molgen-untersuchte-region-17"
          },
          {
            "reference": "Observation/mii-exa-test-data-patient-4-molgen-untersuchte-region-18"
          }
        ],
        "status": "final",
        "code": {
          "coding": [
            {
              "code": "51969-4",
              "system": "http://loinc.org",
              "display": "Genetic analysis report"
            }
          ]
        },
        "subject": {
          "reference": "Patient/mii-exa-test-data-patient-4"
        },
        "conclusion": "Nachweis der pathogenen Variante im CTNNA1-Gen."
      }
    },
    {
      "request": {
        "method": "POST",
        "url": "Device"
      },
      "fullUrl": "https://www.medizininformatik-initiative.de/Device/mii-exa-test-data-molgen-device-sequencer",
      "resource": {
        "resourceType": "Device",
        "id": "mii-exa-test-data-molgen-device-sequencer",
        "deviceName": [
          {
            "name": "MiSeq",
            "type": "manufacturer-name"
          }
        ],
        "status": "active",
        "manufacturer": "Illumina"
      }
    }
  ],
  "type": "transaction",
  "timestamp": "2025-06-18T13:54:00+02:00"
}
