{
  "resourceType": "Bundle",
  "id": "mii-exa-test-data-bundle-pat-9",
  "meta": {
    "security": [
      {
        "code": "HTEST",
        "system": "http://terminology.hl7.org/CodeSystem/v3-ActReason",
        "display": "test health data"
      }
    ]
  },
  "entry": [
    {
      "request": {
        "method": "POST",
        "url": "Patient"
      },
      "fullUrl": "https://www.medizininformatik-initiative.de/Patient/mii-exa-test-data-patient-9",
      "resource": {
        "resourceType": "Patient",
        "id": "mii-exa-test-data-patient-9",
        "meta": {
          "security": [
            {
              "code": "HTEST",
              "system": "http://terminology.hl7.org/CodeSystem/v3-ActReason",
              "display": "test health data"
            }
          ],
          "profile": [
            "https://www.medizininformatik-initiative.de/fhir/core/modul-person/StructureDefinition/Patient",
            "http://fhir.de/ConsentManagement/StructureDefinition/Patient"
          ]
        },
        "identifier": [
          {
            "assigner": {
              "identifier": {
                "system": "https://www.medizininformatik-initiative.de/fhir/core/CodeSystem/core-location-identifier",
                "value": "Charité"
              },
              "display": "Charité - Universitätsmedizin Berlin"
            },
            "type": {
              "coding": [
                {
                  "system": "http://terminology.hl7.org/CodeSystem/v2-0203",
                  "code": "MR"
                }
              ]
            },
            "use": "usual",
            "system": "https://www.medizininformatik-initiative.de/fhir/sid/patienten",
            "value": "321654987"
          },
          {
            "assigner": {
              "identifier": {
                "use": "official",
                "value": "345678901",
                "system": "http://fhir.de/sid/arge-ik/iknr"
              }
            },
            "use": "official",
            "type": {
              "coding": [
                {
                  "code": "KVZ10",
                  "system": "http://fhir.de/CodeSystem/identifier-type-de-basis"
                }
              ]
            },
            "system": "http://fhir.de/sid/gkv/kvid-10",
            "value": "G678901234"
          }
        ],
        "name": [
          {
            "given": [
              "Petra",
              "Elisabeth"
            ],
            "use": "official",
            "family": "Klein"
          },
          {
            "use": "maiden",
            "family": "Fischer"
          }
        ],
        "address": [
          {
            "line": [
              "Müllerstraße 23"
            ],
            "type": "both",
            "city": "Dresden",
            "postalCode": "01067",
            "country": "DE"
          }
        ],
        "gender": "female",
        "birthDate": "1981-12-03",
        "deceasedBoolean": false
      }
    },
    {
      "request": {
        "method": "POST",
        "url": "Consent"
      },
      "fullUrl": "https://www.medizininformatik-initiative.de/Consent/mii-exa-test-data-patient-9-consent-1",
      "resource": {
        "resourceType": "Consent",
        "id": "mii-exa-test-data-patient-9-consent-1",
        "meta": {
          "security": [
            {
              "code": "HTEST",
              "system": "http://terminology.hl7.org/CodeSystem/v3-ActReason",
              "display": "test health data"
            }
          ],
          "profile": [
            "https://www.medizininformatik-initiative.de/fhir/modul-consent/StructureDefinition/mii-pr-consent-einwilligung"
          ]
        },
        "category": [
          {
            "coding": [
              {
                "system": "http://loinc.org",
                "code": "57016-8"
              }
            ]
          },
          {
            "coding": [
              {
                "code": "2.16.840.1.113883.3.1937.777.24.2.184",
                "system": "https://www.medizininformatik-initiative.de/fhir/modul-consent/CodeSystem/mii-cs-consent-consent_category"
              }
            ]
          }
        ],
        "organization": [
          {
            "reference": "Organization/mii-exa-test-data-organization-charite"
          }
        ],
        "policy": [
          {
            "uri": "urn:oid:2.16.840.1.113883.3.1937.777.24.2.1791"
          }
        ],
        "provision": {
          "period": {
            "start": "2024-02-15",
            "end": "2054-02-28"
          },
          "provision": [
            {
              "period": {
                "start": "2024-02-15",
                "end": "2054-02-28"
              },
              "code": [
                {
                  "coding": [
                    {
                      "code": "2.16.840.1.113883.3.1937.777.24.5.3.6",
                      "system": "urn:oid:2.16.840.1.113883.3.1937.777.24.5.3",
                      "display": "MDAT erheben"
                    }
                  ]
                }
              ],
              "type": "permit"
            },
            {
              "period": {
                "start": "2024-02-15",
                "end": "2054-02-28"
              },
              "code": [
                {
                  "coding": [
                    {
                      "code": "2.16.840.1.113883.3.1937.777.24.5.3.7",
                      "system": "urn:oid:2.16.840.1.113883.3.1937.777.24.5.3",
                      "display": "MDAT speichern, verarbeiten"
                    }
                  ]
                }
              ],
              "type": "permit"
            },
            {
              "period": {
                "start": "2024-02-15",
                "end": "2054-02-28"
              },
              "code": [
                {
                  "coding": [
                    {
                      "code": "2.16.840.1.113883.3.1937.777.24.5.3.8",
                      "system": "urn:oid:2.16.840.1.113883.3.1937.777.24.5.3",
                      "display": "MDAT wissenschaftlich nutzen EU DSGVO NIVEAU"
                    }
                  ]
                }
              ],
              "type": "permit"
            },
            {
              "period": {
                "start": "2024-02-15",
                "end": "2054-02-28"
              },
              "code": [
                {
                  "coding": [
                    {
                      "code": "2.16.840.1.113883.3.1937.777.24.5.3.19",
                      "system": "urn:oid:2.16.840.1.113883.3.1937.777.24.5.3",
                      "display": "BIOMAT erheben"
                    }
                  ]
                }
              ],
              "type": "permit"
            },
            {
              "period": {
                "start": "2024-02-15",
                "end": "2054-02-28"
              },
              "code": [
                {
                  "coding": [
                    {
                      "code": "2.16.840.1.113883.3.1937.777.24.5.3.20",
                      "system": "urn:oid:2.16.840.1.113883.3.1937.777.24.5.3",
                      "display": "BIOMAT lagern verarbeiten"
                    }
                  ]
                }
              ],
              "type": "permit"
            },
            {
              "period": {
                "start": "2024-02-15",
                "end": "2054-02-28"
              },
              "code": [
                {
                  "coding": [
                    {
                      "code": "2.16.840.1.113883.3.1937.777.24.5.3.22",
                      "system": "urn:oid:2.16.840.1.113883.3.1937.777.24.5.3",
                      "display": "BIOMAT wissenschaftlich nutzen EU DSGVO NIVEAU"
                    }
                  ]
                }
              ],
              "type": "permit"
            }
          ],
          "type": "deny"
        },
        "scope": {
          "coding": [
            {
              "system": "http://terminology.hl7.org/CodeSystem/consentscope",
              "code": "research"
            }
          ]
        },
        "status": "active",
        "patient": {
          "reference": "Patient/mii-exa-test-data-patient-9"
        },
        "dateTime": "2024-02-15T13:10:00+01:00"
      }
    },
    {
      "request": {
        "method": "POST",
        "url": "Encounter"
      },
      "fullUrl": "https://www.medizininformatik-initiative.de/Encounter/mii-exa-test-data-patient-9-encounter-1",
      "resource": {
        "resourceType": "Encounter",
        "id": "mii-exa-test-data-patient-9-encounter-1",
        "meta": {
          "security": [
            {
              "code": "HTEST",
              "system": "http://terminology.hl7.org/CodeSystem/v3-ActReason",
              "display": "test health data"
            }
          ],
          "profile": [
            "https://www.medizininformatik-initiative.de/fhir/core/modul-fall/StructureDefinition/KontaktGesundheitseinrichtung"
          ]
        },
        "identifier": [
          {
            "type": {
              "coding": [
                {
                  "system": "http://terminology.hl7.org/CodeSystem/v2-0203",
                  "code": "VN"
                }
              ]
            },
            "system": "https://www.charite.de/fhir/NamingSystem/Aufnahmenummern",
            "value": "MII_0000010"
          }
        ],
        "type": [
          {
            "coding": [
              {
                "system": "http://fhir.de/CodeSystem/Kontaktebene",
                "code": "einrichtungskontakt"
              }
            ]
          },
          {
            "coding": [
              {
                "system": "http://fhir.de/CodeSystem/kontaktart-de",
                "code": "normalstationaer"
              }
            ]
          }
        ],
        "serviceType": {
          "coding": [
            {
              "system": "http://fhir.de/CodeSystem/dkgev/Fachabteilungsschluessel",
              "code": "2400"
            }
          ]
        },
        "period": {
          "start": "2024-02-20",
          "end": "2024-02-28"
        },
        "hospitalization": {
          "dischargeDisposition": {
            "extension": [
              {
                "extension": [
                  {
                    "url": "ErsteUndZweiteStelle",
                    "valueCoding": {
                      "code": "01",
                      "system": "http://fhir.de/CodeSystem/dkgev/EntlassungsgrundErsteUndZweiteStelle",
                      "display": "Behandlung regulär beendet"
                    }
                  },
                  {
                    "url": "DritteStelle",
                    "valueCoding": {
                      "code": "1",
                      "system": "http://fhir.de/CodeSystem/dkgev/EntlassungsgrundDritteStelle",
                      "display": "arbeitsfähig entlassen"
                    }
                  }
                ],
                "url": "http://fhir.de/StructureDefinition/Entlassungsgrund"
              }
            ]
          },
          "admitSource": {
            "coding": [
              {
                "code": "E",
                "system": "http://fhir.de/CodeSystem/dgkev/Aufnahmeanlass",
                "display": "Einweisung durch einen Arzt"
              }
            ]
          }
        },
        "serviceProvider": {
          "identifier": {
            "system": "https://www.medizininformatik-initiative.de/fhir/core/CodeSystem/core-location-identifier",
            "value": "Charité"
          },
          "reference": "Organization/mii-exa-test-data-organization-charite",
          "display": "Charité - Universitätsmedizin Berlin"
        },
        "status": "finished",
        "class": {
          "code": "IMP",
          "system": "http://terminology.hl7.org/CodeSystem/v3-ActCode"
        },
        "subject": {
          "reference": "Patient/mii-exa-test-data-patient-9"
        }
      }
    },
    {
      "request": {
        "method": "POST",
        "url": "Condition"
      },
      "fullUrl": "https://www.medizininformatik-initiative.de/Condition/mii-exa-test-data-patient-9-diagnose-1",
      "resource": {
        "resourceType": "Condition",
        "id": "mii-exa-test-data-patient-9-diagnose-1",
        "meta": {
          "security": [
            {
              "code": "HTEST",
              "system": "http://terminology.hl7.org/CodeSystem/v3-ActReason",
              "display": "test health data"
            }
          ],
          "profile": [
            "https://www.medizininformatik-initiative.de/fhir/core/modul-diagnose/StructureDefinition/Diagnose"
          ]
        },
        "code": {
          "coding": [
            {
              "system": "http://fhir.de/CodeSystem/bfarm/icd-10-gm",
              "code": "N83.2",
              "version": "2024"
            },
            {
              "system": "http://fhir.de/CodeSystem/bfarm/alpha-id",
              "code": "I20743",
              "version": "2024",
              "display": "Ovarialzyste"
            },
            {
              "system": "http://snomed.info/sct",
              "code": "79883001",
              "version": "http://snomed.info/sct/900000000000207008/version/20230731",
              "display": "Cyst of ovary (disorder)"
            }
          ]
        },
        "note": [
          {
            "text": "Sonstige und nicht näher bezeichnete Ovarialzysten"
          }
        ],
        "bodySite": [
          {
            "coding": [
              {
                "system": "http://snomed.info/sct",
                "code": "15497006",
                "version": "http://snomed.info/sct/900000000000207008/version/20230731",
                "display": "Ovarian structure (body structure)"
              }
            ]
          }
        ],
        "clinicalStatus": {
          "coding": [
            {
              "code": "active",
              "system": "http://terminology.hl7.org/CodeSystem/condition-clinical"
            }
          ]
        },
        "verificationStatus": {
          "coding": [
            {
              "code": "confirmed",
              "system": "http://terminology.hl7.org/CodeSystem/condition-ver-status"
            }
          ]
        },
        "subject": {
          "reference": "Patient/mii-exa-test-data-patient-9"
        },
        "recordedDate": "2024-02-20"
      }
    },
    {
      "request": {
        "method": "POST",
        "url": "Observation"
      },
      "fullUrl": "https://www.medizininformatik-initiative.de/Observation/mii-exa-test-data-patient-9-vitalstatus-1",
      "resource": {
        "resourceType": "Observation",
        "id": "mii-exa-test-data-patient-9-vitalstatus-1",
        "meta": {
          "security": [
            {
              "code": "HTEST",
              "system": "http://terminology.hl7.org/CodeSystem/v3-ActReason",
              "display": "test health data"
            }
          ],
          "profile": [
            "https://www.medizininformatik-initiative.de/fhir/core/modul-person/StructureDefinition/Vitalstatus"
          ]
        },
        "category": [
          {
            "coding": [
              {
                "system": "http://terminology.hl7.org/CodeSystem/observation-category",
                "code": "survey"
              }
            ]
          }
        ],
        "status": "final",
        "code": {
          "coding": [
            {
              "system": "http://loinc.org",
              "code": "67162-8"
            }
          ]
        },
        "subject": {
          "reference": "Patient/mii-exa-test-data-patient-9"
        },
        "effectiveDateTime": "2024-03-10",
        "valueCodeableConcept": {
          "coding": [
            {
              "code": "L",
              "system": "https://www.medizininformatik-initiative.de/fhir/core/modul-person/CodeSystem/Vitalstatus"
            }
          ]
        }
      }
    },
    {
      "request": {
        "method": "POST",
        "url": "Procedure"
      },
      "fullUrl": "https://www.medizininformatik-initiative.de/Procedure/mii-exa-test-data-patient-9-prozedur-1",
      "resource": {
        "resourceType": "Procedure",
        "id": "mii-exa-test-data-patient-9-prozedur-1",
        "meta": {
          "security": [
            {
              "code": "HTEST",
              "system": "http://terminology.hl7.org/CodeSystem/v3-ActReason",
              "display": "test health data"
            }
          ],
          "profile": [
            "https://www.medizininformatik-initiative.de/fhir/core/modul-prozedur/StructureDefinition/Procedure"
          ]
        },
        "category": {
          "coding": [
            {
              "system": "http://snomed.info/sct",
              "code": "165197003",
              "version": "http://snomed.info/sct/900000000000207008/version/20230731"
            }
          ]
        },
        "code": {
          "coding": [
            {
              "system": "http://snomed.info/sct",
              "code": "73632009",
              "version": "http://snomed.info/sct/900000000000207008/version/20230731"
            },
            {
              "system": "http://fhir.de/CodeSystem/bfarm/ops",
              "code": "1-694",
              "version": "2024"
            }
          ]
        },
        "bodySite": [
          {
            "coding": [
              {
                "code": "20304007",
                "system": "http://snomed.info/sct",
                "version": "http://snomed.info/sct/900000000000207008/version/20230731"
              }
            ]
          }
        ],
        "note": [
          {
            "text": "Laparoskopische Abklärung der Ovarialzyste"
          }
        ],
        "extension": [
          {
            "url": "https://www.medizininformatik-initiative.de/fhir/core/modul-prozedur/StructureDefinition/Durchfuehrungsabsicht",
            "valueCoding": {
              "system": "http://snomed.info/sct",
              "code": "261004008",
              "version": "http://snomed.info/sct/900000000000207008/version/20230731",
              "display": "Diagnostic intent"
            }
          }
        ],
        "status": "completed",
        "subject": {
          "reference": "Patient/mii-exa-test-data-patient-9"
        },
        "performedDateTime": "2024-02-23T10:00:00+01:00",
        "encounter": {
          "reference": "Encounter/mii-exa-test-data-patient-9-encounter-1"
        },
        "recorder": {
          "reference": "PractitionerRole/mii-exa-test-data-practitioner-role-physician-1"
        }
      }
    },
    {
      "request": {
        "method": "POST",
        "url": "Procedure"
      },
      "fullUrl": "https://www.medizininformatik-initiative.de/Procedure/mii-exa-test-data-patient-9-prozedur-2",
      "resource": {
        "resourceType": "Procedure",
        "id": "mii-exa-test-data-patient-9-prozedur-2",
        "meta": {
          "security": [
            {
              "code": "HTEST",
              "system": "http://terminology.hl7.org/CodeSystem/v3-ActReason",
              "display": "test health data"
            }
          ],
          "profile": [
            "https://www.medizininformatik-initiative.de/fhir/core/modul-prozedur/StructureDefinition/Procedure"
          ]
        },
        "category": {
          "coding": [
            {
              "system": "http://snomed.info/sct",
              "code": "387713003",
              "version": "http://snomed.info/sct/900000000000207008/version/20230731"
            }
          ]
        },
        "code": {
          "coding": [
            {
              "system": "http://snomed.info/sct",
              "code": "450560001",
              "version": "http://snomed.info/sct/900000000000207008/version/20230731"
            },
            {
              "system": "http://fhir.de/CodeSystem/bfarm/ops",
              "code": "5-651.82",
              "version": "2024"
            }
          ]
        },
        "bodySite": [
          {
            "coding": [
              {
                "code": "15497006",
                "system": "http://snomed.info/sct",
                "version": "http://snomed.info/sct/900000000000207008/version/20230731"
              }
            ]
          }
        ],
        "note": [
          {
            "text": "Laparoskopische Entfernung der Ovarialzyste mit Ovarerhalt"
          }
        ],
        "performedPeriod": {
          "start": "2024-02-23T10:30:00+01:00",
          "end": "2024-02-23T12:15:00+01:00"
        },
        "extension": [
          {
            "url": "https://www.medizininformatik-initiative.de/fhir/core/modul-prozedur/StructureDefinition/Durchfuehrungsabsicht",
            "valueCoding": {
              "system": "http://snomed.info/sct",
              "code": "262202000",
              "version": "http://snomed.info/sct/900000000000207008/version/20230731",
              "display": "Therapeutic"
            }
          }
        ],
        "status": "completed",
        "subject": {
          "reference": "Patient/mii-exa-test-data-patient-9"
        },
        "encounter": {
          "reference": "Encounter/mii-exa-test-data-patient-9-encounter-1"
        },
        "recorder": {
          "reference": "PractitionerRole/mii-exa-test-data-practitioner-role-physician-1"
        }
      }
    },
    {
      "request": {
        "method": "POST",
        "url": "ServiceRequest"
      },
      "fullUrl": "https://www.medizininformatik-initiative.de/ServiceRequest/mii-exa-test-data-patient-9-labrequest-1",
      "resource": {
        "resourceType": "ServiceRequest",
        "id": "mii-exa-test-data-patient-9-labrequest-1",
        "meta": {
          "security": [
            {
              "code": "HTEST",
              "system": "http://terminology.hl7.org/CodeSystem/v3-ActReason",
              "display": "test health data"
            }
          ],
          "profile": [
            "https://www.medizininformatik-initiative.de/fhir/core/modul-labor/StructureDefinition/ServiceRequestLab"
          ]
        },
        "identifier": [
          {
            "assigner": {
              "identifier": {
                "system": "https://www.medizininformatik-initiative.de/fhir/core/CodeSystem/core-location-identifier",
                "value": "Charité"
              }
            },
            "type": {
              "coding": [
                {
                  "system": "http://terminology.hl7.org/CodeSystem/v2-0203",
                  "code": "PLAC"
                }
              ]
            },
            "system": "https://www.charite.de/fhir/sid/lab-requests",
            "value": "LAB_000009"
          }
        ],
        "category": [
          {
            "coding": [
              {
                "system": "http://terminology.hl7.org/CodeSystem/observation-category",
                "code": "laboratory"
              }
            ]
          }
        ],
        "reasonCode": [
          {
            "coding": [
              {
                "code": "79883001",
                "system": "http://snomed.info/sct",
                "version": "http://snomed.info/sct/900000000000207008/version/20230731",
                "display": "Cyst of ovary (disorder)"
              }
            ]
          }
        ],
        "specimen": [
          {
            "reference": "Specimen/mii-exa-test-data-patient-9-specimen-2"
          }
        ],
        "status": "completed",
        "intent": "order",
        "code": {
          "coding": [
            {
              "code": "24364-2",
              "system": "http://loinc.org"
            }
          ]
        },
        "subject": {
          "reference": "Patient/mii-exa-test-data-patient-9"
        },
        "encounter": {
          "reference": "Encounter/mii-exa-test-data-patient-9-encounter-1"
        },
        "authoredOn": "2024-02-22T06:45:00+01:00",
        "requester": {
          "reference": "Practitioner/mii-exa-test-data-practitioner-physician-1"
        }
      }
    },
    {
      "request": {
        "method": "POST",
        "url": "DiagnosticReport"
      },
      "fullUrl": "https://www.medizininformatik-initiative.de/DiagnosticReport/mii-exa-test-data-patient-9-labreport-1",
      "resource": {
        "resourceType": "DiagnosticReport",
        "id": "mii-exa-test-data-patient-9-labreport-1",
        "meta": {
          "security": [
            {
              "code": "HTEST",
              "system": "http://terminology.hl7.org/CodeSystem/v3-ActReason",
              "display": "test health data"
            }
          ],
          "profile": [
            "https://www.medizininformatik-initiative.de/fhir/core/modul-labor/StructureDefinition/DiagnosticReportLab"
          ]
        },
        "identifier": [
          {
            "assigner": {
              "identifier": {
                "system": "https://www.medizininformatik-initiative.de/fhir/core/CodeSystem/core-location-identifier",
                "value": "Charité"
              }
            },
            "type": {
              "coding": [
                {
                  "system": "http://terminology.hl7.org/CodeSystem/v2-0203",
                  "code": "FILL"
                }
              ]
            },
            "system": "https://www.charite.de/fhir/sid/lab-results",
            "value": "LDR_000009"
          }
        ],
        "category": [
          {
            "coding": [
              {
                "system": "http://loinc.org",
                "code": "26436-6",
                "display": "Laboratory studies (set)"
              },
              {
                "system": "http://terminology.hl7.org/CodeSystem/v2-0074",
                "code": "LAB"
              }
            ]
          }
        ],
        "code": {
          "coding": [
            {
              "system": "http://loinc.org",
              "code": "11502-2",
              "display": "Laboratory report"
            }
          ]
        },
        "basedOn": [
          {
            "reference": "ServiceRequest/mii-exa-test-data-patient-9-labrequest-1"
          }
        ],
        "performer": [
          {
            "reference": "Organization/mii-exa-test-data-organization-labor-berlin"
          }
        ],
        "specimen": [
          {
            "reference": "Specimen/mii-exa-test-data-patient-9-specimen-1"
          },
          {
            "reference": "Specimen/mii-exa-test-data-patient-9-specimen-2"
          }
        ],
        "result": [
          {
            "reference": "Observation/mii-exa-test-data-patient-9-labobs-1"
          },
          {
            "reference": "Observation/mii-exa-test-data-patient-9-labobs-2"
          },
          {
            "reference": "Observation/mii-exa-test-data-patient-9-labobs-3"
          }
        ],
        "status": "final",
        "subject": {
          "reference": "Patient/mii-exa-test-data-patient-9"
        },
        "encounter": {
          "reference": "Encounter/mii-exa-test-data-patient-9-encounter-1"
        },
        "effectiveDateTime": "2024-02-22T07:15:00+01:00",
        "issued": "2024-02-22T11:00:00+01:00",
        "conclusion": "Normale Blutbild-Parameter bei prämenopausaler Frau. Estradiol-Spiegel (285 pmol/L) im Normbereich für reproduktive Phase. Ovarialzyste ohne Hormonaktivität."
      }
    },
    {
      "request": {
        "method": "POST",
        "url": "Observation"
      },
      "fullUrl": "https://www.medizininformatik-initiative.de/Observation/mii-exa-test-data-patient-9-labobs-1",
      "resource": {
        "resourceType": "Observation",
        "id": "mii-exa-test-data-patient-9-labobs-1",
        "meta": {
          "security": [
            {
              "code": "HTEST",
              "system": "http://terminology.hl7.org/CodeSystem/v3-ActReason",
              "display": "test health data"
            }
          ],
          "profile": [
            "https://www.medizininformatik-initiative.de/fhir/core/modul-labor/StructureDefinition/ObservationLab"
          ]
        },
        "identifier": [
          {
            "assigner": {
              "identifier": {
                "system": "https://www.medizininformatik-initiative.de/fhir/core/CodeSystem/core-location-identifier",
                "value": "Charité"
              }
            },
            "type": {
              "coding": [
                {
                  "system": "http://terminology.hl7.org/CodeSystem/v2-0203",
                  "code": "OBI"
                }
              ]
            },
            "system": "https://www.charite.de/fhir/sid/lab-results",
            "value": "LO_000029"
          }
        ],
        "category": [
          {
            "coding": [
              {
                "system": "http://loinc.org",
                "code": "26436-6",
                "display": "Laboratory studies (set)"
              },
              {
                "system": "http://terminology.hl7.org/CodeSystem/observation-category",
                "code": "laboratory",
                "display": "Laboratory"
              }
            ]
          }
        ],
        "basedOn": [
          {
            "reference": "ServiceRequest/mii-exa-test-data-patient-9-labrequest-1"
          }
        ],
        "interpretation": [
          {
            "coding": [
              {
                "code": "N",
                "system": "http://terminology.hl7.org/CodeSystem/v3-ObservationInterpretation",
                "display": "Normal"
              }
            ]
          }
        ],
        "valueQuantity": {
          "system": "http://unitsofmeasure.org",
          "value": 6.8,
          "code": "/nL",
          "unit": "/nanoliter"
        },
        "status": "final",
        "code": {
          "coding": [
            {
              "code": "26464-8",
              "system": "http://loinc.org",
              "display": "Leukocytes [#/volume] in Blood"
            }
          ]
        },
        "subject": {
          "reference": "Patient/mii-exa-test-data-patient-9"
        },
        "encounter": {
          "reference": "Encounter/mii-exa-test-data-patient-9-encounter-1"
        },
        "effectiveDateTime": "2024-02-22T07:15:00+01:00",
        "issued": "2024-02-22T09:00:00+01:00",
        "method": {
          "coding": [
            {
              "code": "703452004",
              "system": "http://snomed.info/sct",
              "version": "http://snomed.info/sct/900000000000207008/version/20230731",
              "display": "Electrical impedance technique (qualifier value)"
            }
          ]
        },
        "specimen": {
          "reference": "Specimen/mii-exa-test-data-patient-9-specimen-1"
        },
        "device": {
          "reference": "Device/mii-exa-test-data-device-roche-cobas-c303"
        }
      }
    },
    {
      "request": {
        "method": "POST",
        "url": "Observation"
      },
      "fullUrl": "https://www.medizininformatik-initiative.de/Observation/mii-exa-test-data-patient-9-labobs-2",
      "resource": {
        "resourceType": "Observation",
        "id": "mii-exa-test-data-patient-9-labobs-2",
        "meta": {
          "security": [
            {
              "code": "HTEST",
              "system": "http://terminology.hl7.org/CodeSystem/v3-ActReason",
              "display": "test health data"
            }
          ],
          "profile": [
            "https://www.medizininformatik-initiative.de/fhir/core/modul-labor/StructureDefinition/ObservationLab"
          ]
        },
        "identifier": [
          {
            "assigner": {
              "identifier": {
                "system": "https://www.medizininformatik-initiative.de/fhir/core/CodeSystem/core-location-identifier",
                "value": "Charité"
              }
            },
            "type": {
              "coding": [
                {
                  "system": "http://terminology.hl7.org/CodeSystem/v2-0203",
                  "code": "OBI"
                }
              ]
            },
            "system": "https://www.charite.de/fhir/sid/lab-results",
            "value": "LO_000030"
          }
        ],
        "category": [
          {
            "coding": [
              {
                "system": "http://loinc.org",
                "code": "26436-6",
                "display": "Laboratory studies (set)"
              },
              {
                "system": "http://terminology.hl7.org/CodeSystem/observation-category",
                "code": "laboratory",
                "display": "Laboratory"
              }
            ]
          }
        ],
        "basedOn": [
          {
            "reference": "ServiceRequest/mii-exa-test-data-patient-9-labrequest-1"
          }
        ],
        "interpretation": [
          {
            "coding": [
              {
                "code": "N",
                "system": "http://terminology.hl7.org/CodeSystem/v3-ObservationInterpretation",
                "display": "Normal"
              }
            ]
          }
        ],
        "valueQuantity": {
          "system": "http://unitsofmeasure.org",
          "value": 12.8,
          "code": "g/dL",
          "unit": "gram per deciliter"
        },
        "status": "final",
        "code": {
          "coding": [
            {
              "code": "718-7",
              "system": "http://loinc.org",
              "display": "Hemoglobin [Mass/volume] in Blood"
            }
          ]
        },
        "subject": {
          "reference": "Patient/mii-exa-test-data-patient-9"
        },
        "encounter": {
          "reference": "Encounter/mii-exa-test-data-patient-9-encounter-1"
        },
        "effectiveDateTime": "2024-02-22T07:15:00+01:00",
        "issued": "2024-02-22T09:00:00+01:00",
        "method": {
          "coding": [
            {
              "code": "83561000052101",
              "system": "http://snomed.info/sct",
              "version": "http://snomed.info/sct/900000000000207008/version/20230731",
              "display": "Photometry technique (qualifier value)"
            }
          ]
        },
        "specimen": {
          "reference": "Specimen/mii-exa-test-data-patient-9-specimen-1"
        },
        "device": {
          "reference": "Device/mii-exa-test-data-device-roche-cobas-c303"
        }
      }
    },
    {
      "request": {
        "method": "POST",
        "url": "Observation"
      },
      "fullUrl": "https://www.medizininformatik-initiative.de/Observation/mii-exa-test-data-patient-9-labobs-3",
      "resource": {
        "resourceType": "Observation",
        "id": "mii-exa-test-data-patient-9-labobs-3",
        "meta": {
          "security": [
            {
              "code": "HTEST",
              "system": "http://terminology.hl7.org/CodeSystem/v3-ActReason",
              "display": "test health data"
            }
          ],
          "profile": [
            "https://www.medizininformatik-initiative.de/fhir/core/modul-labor/StructureDefinition/ObservationLab"
          ]
        },
        "identifier": [
          {
            "assigner": {
              "identifier": {
                "system": "https://www.medizininformatik-initiative.de/fhir/core/CodeSystem/core-location-identifier",
                "value": "Charité"
              }
            },
            "type": {
              "coding": [
                {
                  "system": "http://terminology.hl7.org/CodeSystem/v2-0203",
                  "code": "OBI"
                }
              ]
            },
            "system": "https://www.charite.de/fhir/sid/lab-results",
            "value": "LO_000031"
          }
        ],
        "category": [
          {
            "coding": [
              {
                "system": "http://loinc.org",
                "code": "26436-6",
                "display": "Laboratory studies (set)"
              },
              {
                "system": "http://terminology.hl7.org/CodeSystem/observation-category",
                "code": "laboratory",
                "display": "Laboratory"
              }
            ]
          }
        ],
        "basedOn": [
          {
            "reference": "ServiceRequest/mii-exa-test-data-patient-9-labrequest-1"
          }
        ],
        "interpretation": [
          {
            "coding": [
              {
                "code": "N",
                "system": "http://terminology.hl7.org/CodeSystem/v3-ObservationInterpretation",
                "display": "Normal"
              }
            ]
          }
        ],
        "valueQuantity": {
          "system": "http://unitsofmeasure.org",
          "value": 285,
          "code": "pmol/L",
          "unit": "picomole per liter"
        },
        "status": "final",
        "code": {
          "coding": [
            {
              "code": "14715-7",
              "system": "http://loinc.org",
              "display": "Estradiol (E2) [Moles/volume] in Serum or Plasma"
            }
          ]
        },
        "subject": {
          "reference": "Patient/mii-exa-test-data-patient-9"
        },
        "encounter": {
          "reference": "Encounter/mii-exa-test-data-patient-9-encounter-1"
        },
        "effectiveDateTime": "2024-02-22T07:15:00+01:00",
        "issued": "2024-02-22T09:00:00+01:00",
        "method": {
          "coding": [
            {
              "code": "83561000052101",
              "system": "http://snomed.info/sct",
              "version": "http://snomed.info/sct/900000000000207008/version/20230731",
              "display": "Photometry technique (qualifier value)"
            }
          ]
        },
        "specimen": {
          "reference": "Specimen/mii-exa-test-data-patient-9-specimen-1"
        },
        "device": {
          "reference": "Device/mii-exa-test-data-device-roche-cobas-c303"
        }
      }
    },
    {
      "request": {
        "method": "POST",
        "url": "MedicationRequest"
      },
      "fullUrl": "https://www.medizininformatik-initiative.de/MedicationRequest/mii-exa-test-data-patient-9-medrequest-1",
      "resource": {
        "resourceType": "MedicationRequest",
        "id": "mii-exa-test-data-patient-9-medrequest-1",
        "meta": {
          "security": [
            {
              "code": "HTEST",
              "system": "http://terminology.hl7.org/CodeSystem/v3-ActReason",
              "display": "test health data"
            }
          ],
          "profile": [
            "https://www.medizininformatik-initiative.de/fhir/core/modul-medikation/StructureDefinition/MedicationRequest"
          ]
        },
        "identifier": [
          {
            "system": "https://www.charite.de/fhir/sid/MedicationOrders",
            "value": "MO_0000023"
          }
        ],
        "dosageInstruction": [
          {
            "doseAndRate": [
              {
                "doseQuantity": {
                  "value": 1,
                  "code": "1",
                  "system": "http://unitsofmeasure.org",
                  "unit": "1"
                }
              }
            ],
            "timing": {
              "repeat": {
                "frequency": 1,
                "period": 1,
                "periodUnit": "d"
              }
            },
            "text": "Verhütungspille 1 Tablette täglich",
            "route": {
              "coding": [
                {
                  "code": "20053000",
                  "system": "http://standardterms.edqm.eu",
                  "display": "Oral use"
                }
              ]
            }
          }
        ],
        "substitution": {
          "allowedBoolean": true
        },
        "status": "active",
        "intent": "order",
        "medicationReference": {
          "reference": "Medication/mii-exa-test-data-medication-ethinylestradiol-levonorgestrel"
        },
        "subject": {
          "reference": "Patient/mii-exa-test-data-patient-9"
        },
        "encounter": {
          "reference": "Encounter/mii-exa-test-data-patient-9-encounter-1"
        },
        "authoredOn": "2024-02-21T10:00:00+01:00"
      }
    },
    {
      "request": {
        "method": "POST",
        "url": "MedicationRequest"
      },
      "fullUrl": "https://www.medizininformatik-initiative.de/MedicationRequest/mii-exa-test-data-patient-9-medrequest-2",
      "resource": {
        "resourceType": "MedicationRequest",
        "id": "mii-exa-test-data-patient-9-medrequest-2",
        "meta": {
          "security": [
            {
              "code": "HTEST",
              "system": "http://terminology.hl7.org/CodeSystem/v3-ActReason",
              "display": "test health data"
            }
          ],
          "profile": [
            "https://www.medizininformatik-initiative.de/fhir/core/modul-medikation/StructureDefinition/MedicationRequest"
          ]
        },
        "identifier": [
          {
            "system": "https://www.charite.de/fhir/sid/MedicationOrders",
            "value": "MO_0000020"
          }
        ],
        "dosageInstruction": [
          {
            "doseAndRate": [
              {
                "doseQuantity": {
                  "value": 500,
                  "code": "mg",
                  "system": "http://unitsofmeasure.org",
                  "unit": "mg"
                }
              }
            ],
            "timing": {
              "repeat": {
                "frequency": 4,
                "period": 1,
                "periodUnit": "d"
              }
            },
            "text": "Paracetamol 500mg bis zu 4x täglich bei Bedarf",
            "route": {
              "coding": [
                {
                  "code": "20053000",
                  "system": "http://standardterms.edqm.eu",
                  "display": "Oral use"
                }
              ]
            },
            "asNeededBoolean": true
          }
        ],
        "substitution": {
          "allowedBoolean": true
        },
        "status": "active",
        "intent": "order",
        "medicationReference": {
          "reference": "Medication/mii-exa-test-data-medication-paracetamol"
        },
        "subject": {
          "reference": "Patient/mii-exa-test-data-patient-9"
        },
        "encounter": {
          "reference": "Encounter/mii-exa-test-data-patient-9-encounter-1"
        },
        "authoredOn": "2024-02-22T16:00:00+01:00"
      }
    },
    {
      "request": {
        "method": "POST",
        "url": "MedicationStatement"
      },
      "fullUrl": "https://www.medizininformatik-initiative.de/MedicationStatement/mii-exa-test-data-patient-9-medstatement-1",
      "resource": {
        "resourceType": "MedicationStatement",
        "id": "mii-exa-test-data-patient-9-medstatement-1",
        "meta": {
          "security": [
            {
              "code": "HTEST",
              "system": "http://terminology.hl7.org/CodeSystem/v3-ActReason",
              "display": "test health data"
            }
          ],
          "profile": [
            "https://www.medizininformatik-initiative.de/fhir/core/modul-medikation/StructureDefinition/MedicationStatement"
          ]
        },
        "identifier": [
          {
            "system": "https://www.charite.de/fhir/sid/MedicationStatements",
            "value": "MS_0000024"
          }
        ],
        "basedOn": [
          {
            "reference": "MedicationRequest/mii-exa-test-data-patient-9-medrequest-1"
          }
        ],
        "category": {
          "coding": [
            {
              "system": "http://terminology.hl7.org/CodeSystem/medication-statement-category",
              "code": "outpatient"
            },
            {
              "system": "http://ihe-d.de/CodeSystems/FallkontextBeiDokumentenerstellung",
              "code": "E210",
              "display": "stationäre Aufnahme"
            }
          ]
        },
        "effectivePeriod": {
          "start": "2024-01-01T08:00:00+01:00",
          "end": "2024-02-28T08:00:00+01:00"
        },
        "dosage": [
          {
            "route": {
              "coding": [
                {
                  "system": "http://standardterms.edqm.eu",
                  "code": "20053000",
                  "display": "Oral use"
                }
              ]
            },
            "doseAndRate": [
              {
                "doseQuantity": {
                  "system": "http://unitsofmeasure.org",
                  "value": 1,
                  "code": "1",
                  "unit": "1"
                }
              }
            ],
            "timing": {
              "repeat": {
                "frequency": 1,
                "period": 1,
                "periodUnit": "d"
              }
            },
            "text": "Verhütungspille 1 Tablette täglich"
          }
        ],
        "status": "active",
        "medicationReference": {
          "reference": "Medication/mii-exa-test-data-medication-ethinylestradiol-levonorgestrel"
        },
        "subject": {
          "reference": "Patient/mii-exa-test-data-patient-9"
        },
        "context": {
          "reference": "Encounter/mii-exa-test-data-patient-9-encounter-1"
        },
        "dateAsserted": "2024-02-21"
      }
    },
    {
      "request": {
        "method": "POST",
        "url": "MedicationStatement"
      },
      "fullUrl": "https://www.medizininformatik-initiative.de/MedicationStatement/mii-exa-test-data-patient-9-medstatement-2",
      "resource": {
        "resourceType": "MedicationStatement",
        "id": "mii-exa-test-data-patient-9-medstatement-2",
        "meta": {
          "security": [
            {
              "code": "HTEST",
              "system": "http://terminology.hl7.org/CodeSystem/v3-ActReason",
              "display": "test health data"
            }
          ],
          "profile": [
            "https://www.medizininformatik-initiative.de/fhir/core/modul-medikation/StructureDefinition/MedicationStatement"
          ]
        },
        "identifier": [
          {
            "system": "https://www.charite.de/fhir/sid/MedicationStatements",
            "value": "MS_0000019"
          }
        ],
        "dosage": [
          {
            "doseAndRate": [
              {
                "doseQuantity": {
                  "system": "http://unitsofmeasure.org",
                  "value": 500,
                  "code": "mg",
                  "unit": "mg"
                }
              }
            ],
            "timing": {
              "repeat": {
                "frequency": 4,
                "period": 1,
                "periodUnit": "d"
              }
            },
            "text": "Paracetamol 500mg bei Bedarf",
            "route": {
              "coding": [
                {
                  "code": "20053000",
                  "system": "http://standardterms.edqm.eu",
                  "display": "Oral use"
                }
              ]
            },
            "asNeededBoolean": true
          }
        ],
        "status": "active",
        "category": {
          "coding": [
            {
              "code": "inpatient",
              "system": "http://terminology.hl7.org/CodeSystem/medication-statement-category",
              "display": "Inpatient"
            }
          ]
        },
        "medicationReference": {
          "reference": "Medication/mii-exa-test-data-medication-paracetamol"
        },
        "subject": {
          "reference": "Patient/mii-exa-test-data-patient-9"
        },
        "context": {
          "reference": "Encounter/mii-exa-test-data-patient-9-encounter-1"
        },
        "effectiveDateTime": "2024-02-22T16:00:00+01:00"
      }
    },
    {
      "request": {
        "method": "POST",
        "url": "MedicationAdministration"
      },
      "fullUrl": "https://www.medizininformatik-initiative.de/MedicationAdministration/mii-exa-test-data-patient-9-medadmin-1",
      "resource": {
        "resourceType": "MedicationAdministration",
        "id": "mii-exa-test-data-patient-9-medadmin-1",
        "meta": {
          "security": [
            {
              "code": "HTEST",
              "system": "http://terminology.hl7.org/CodeSystem/v3-ActReason",
              "display": "test health data"
            }
          ],
          "profile": [
            "https://www.medizininformatik-initiative.de/fhir/core/modul-medikation/StructureDefinition/MedicationAdministration"
          ]
        },
        "identifier": [
          {
            "system": "https://www.charite.de/fhir/sid/MedicationAdministrations",
            "value": "MA_0000019"
          }
        ],
        "dosage": {
          "route": {
            "coding": [
              {
                "system": "http://standardterms.edqm.eu",
                "code": "20053000",
                "display": "Oral use"
              }
            ]
          },
          "dose": {
            "system": "http://unitsofmeasure.org",
            "value": 1,
            "code": "1",
            "unit": "1"
          },
          "text": "Verhütungspille 1 Tablette"
        },
        "status": "completed",
        "category": {
          "coding": [
            {
              "code": "inpatient",
              "system": "http://terminology.hl7.org/CodeSystem/medication-admin-category",
              "display": "Inpatient"
            }
          ]
        },
        "medicationReference": {
          "reference": "Medication/mii-exa-test-data-medication-ethinylestradiol-levonorgestrel"
        },
        "subject": {
          "reference": "Patient/mii-exa-test-data-patient-9"
        },
        "context": {
          "reference": "Encounter/mii-exa-test-data-patient-9-encounter-1"
        },
        "effectiveDateTime": "2024-02-21T08:00:00+01:00",
        "request": {
          "reference": "MedicationRequest/mii-exa-test-data-patient-9-medrequest-1"
        }
      }
    },
    {
      "request": {
        "method": "POST",
        "url": "MedicationAdministration"
      },
      "fullUrl": "https://www.medizininformatik-initiative.de/MedicationAdministration/mii-exa-test-data-patient-9-medadmin-2",
      "resource": {
        "resourceType": "MedicationAdministration",
        "id": "mii-exa-test-data-patient-9-medadmin-2",
        "meta": {
          "security": [
            {
              "code": "HTEST",
              "system": "http://terminology.hl7.org/CodeSystem/v3-ActReason",
              "display": "test health data"
            }
          ],
          "profile": [
            "https://www.medizininformatik-initiative.de/fhir/core/modul-medikation/StructureDefinition/MedicationAdministration"
          ]
        },
        "identifier": [
          {
            "system": "https://www.charite.de/fhir/sid/MedicationAdministrations",
            "value": "MA_0000022"
          }
        ],
        "dosage": {
          "site": {
            "coding": [
              {
                "system": "http://snomed.info/sct",
                "code": "74262004",
                "version": "http://snomed.info/sct/900000000000207008/version/20230731",
                "display": "Oral cavity structure (body structure)"
              }
            ]
          },
          "route": {
            "coding": [
              {
                "system": "http://standardterms.edqm.eu",
                "code": "20053000",
                "display": "Oral use"
              }
            ]
          },
          "dose": {
            "system": "http://unitsofmeasure.org",
            "value": 500,
            "unit": "mg",
            "code": "mg"
          },
          "text": "Paracetamol 500mg oral bei postoperativen Schmerzen"
        },
        "status": "completed",
        "category": {
          "coding": [
            {
              "code": "inpatient",
              "system": "http://terminology.hl7.org/CodeSystem/medication-admin-category",
              "display": "Inpatient"
            }
          ]
        },
        "medicationReference": {
          "reference": "Medication/mii-exa-test-data-medication-paracetamol"
        },
        "subject": {
          "reference": "Patient/mii-exa-test-data-patient-9"
        },
        "context": {
          "reference": "Encounter/mii-exa-test-data-patient-9-encounter-1"
        },
        "effectiveDateTime": "2024-02-23T08:00:00+01:00",
        "request": {
          "reference": "MedicationRequest/mii-exa-test-data-patient-9-medrequest-2"
        }
      }
    },
    {
      "request": {
        "method": "POST",
        "url": "List"
      },
      "fullUrl": "https://www.medizininformatik-initiative.de/List/mii-exa-test-data-patient-9-list-aufnahmemedikation",
      "resource": {
        "resourceType": "List",
        "id": "mii-exa-test-data-patient-9-list-aufnahmemedikation",
        "meta": {
          "security": [
            {
              "code": "HTEST",
              "system": "http://terminology.hl7.org/CodeSystem/v3-ActReason",
              "display": "test health data"
            }
          ],
          "profile": [
            "https://www.medizininformatik-initiative.de/fhir/core/modul-medikation/StructureDefinition/medikationsliste"
          ]
        },
        "code": {
          "coding": [
            {
              "system": "http://terminology.hl7.org/CodeSystem/list-example-use-codes",
              "code": "medications"
            },
            {
              "system": "http://ihe-d.de/CodeSystems/FallkontextBeiDokumentenerstellung",
              "code": "E210"
            }
          ]
        },
        "entry": [
          {
            "item": {
              "reference": "MedicationStatement/mii-exa-test-data-patient-9-medstatement-1"
            }
          }
        ],
        "status": "current",
        "mode": "snapshot",
        "title": "Aufnahmemedikation",
        "subject": {
          "reference": "Patient/mii-exa-test-data-patient-9"
        }
      }
    },
    {
      "request": {
        "method": "POST",
        "url": "List"
      },
      "fullUrl": "https://www.medizininformatik-initiative.de/List/mii-exa-test-data-patient-9-list-entlassmedikation",
      "resource": {
        "resourceType": "List",
        "id": "mii-exa-test-data-patient-9-list-entlassmedikation",
        "meta": {
          "security": [
            {
              "code": "HTEST",
              "system": "http://terminology.hl7.org/CodeSystem/v3-ActReason",
              "display": "test health data"
            }
          ],
          "profile": [
            "https://www.medizininformatik-initiative.de/fhir/core/modul-medikation/StructureDefinition/medikationsliste"
          ]
        },
        "code": {
          "coding": [
            {
              "system": "http://terminology.hl7.org/CodeSystem/list-example-use-codes",
              "code": "medications"
            },
            {
              "system": "http://ihe-d.de/CodeSystems/FallkontextBeiDokumentenerstellung",
              "code": "E230"
            }
          ]
        },
        "entry": [
          {
            "item": {
              "reference": "MedicationStatement/mii-exa-test-data-patient-9-medstatement-1"
            }
          }
        ],
        "status": "current",
        "mode": "snapshot",
        "title": "Entlassmedikation",
        "subject": {
          "reference": "Patient/mii-exa-test-data-patient-9"
        }
      }
    },
    {
      "request": {
        "method": "POST",
        "url": "Medication"
      },
      "fullUrl": "https://www.medizininformatik-initiative.de/Medication/mii-exa-test-data-medication-ethinylestradiol-levonorgestrel",
      "resource": {
        "resourceType": "Medication",
        "id": "mii-exa-test-data-medication-ethinylestradiol-levonorgestrel",
        "meta": {
          "security": [
            {
              "code": "HTEST",
              "system": "http://terminology.hl7.org/CodeSystem/v3-ActReason",
              "display": "test health data"
            }
          ],
          "profile": [
            "https://www.medizininformatik-initiative.de/fhir/core/modul-medikation/StructureDefinition/Medication"
          ]
        },
        "code": {
          "coding": [
            {
              "system": "http://fhir.de/CodeSystem/bfarm/atc",
              "code": "G03AA07",
              "version": "2024",
              "display": "Levonorgestrel und Ethinylestradiol"
            }
          ]
        },
        "ingredient": [
          {
            "itemCodeableConcept": {
              "coding": [
                {
                  "system": "http://fhir.de/CodeSystem/ask",
                  "code": "02200"
                }
              ]
            },
            "strength": {
              "numerator": {
                "value": 0.03,
                "code": "mg",
                "system": "http://unitsofmeasure.org",
                "unit": "mg"
              },
              "denominator": {
                "value": 1,
                "code": "1",
                "system": "http://unitsofmeasure.org",
                "unit": "1"
              }
            }
          },
          {
            "itemCodeableConcept": {
              "coding": [
                {
                  "system": "http://fhir.de/CodeSystem/ask",
                  "code": "03335"
                }
              ]
            },
            "strength": {
              "numerator": {
                "value": 0.15,
                "code": "mg",
                "system": "http://unitsofmeasure.org",
                "unit": "mg"
              },
              "denominator": {
                "value": 1,
                "code": "1",
                "system": "http://unitsofmeasure.org",
                "unit": "1"
              }
            }
          }
        ],
        "form": {
          "coding": [
            {
              "code": "10221000",
              "system": "http://standardterms.edqm.eu",
              "display": "Film-coated tablet"
            }
          ]
        },
        "status": "active"
      }
    },
    {
      "request": {
        "method": "POST",
        "url": "Medication"
      },
      "fullUrl": "https://www.medizininformatik-initiative.de/Medication/mii-exa-test-data-medication-paracetamol",
      "resource": {
        "resourceType": "Medication",
        "id": "mii-exa-test-data-medication-paracetamol",
        "meta": {
          "security": [
            {
              "code": "HTEST",
              "system": "http://terminology.hl7.org/CodeSystem/v3-ActReason",
              "display": "test health data"
            }
          ],
          "profile": [
            "https://www.medizininformatik-initiative.de/fhir/core/modul-medikation/StructureDefinition/Medication"
          ]
        },
        "code": {
          "coding": [
            {
              "system": "http://fhir.de/CodeSystem/bfarm/atc",
              "code": "N02BE01",
              "version": "2024",
              "display": "Paracetamol"
            }
          ]
        },
        "ingredient": [
          {
            "itemCodeableConcept": {
              "coding": [
                {
                  "system": "http://fhir.de/CodeSystem/ask",
                  "code": "01212"
                }
              ]
            },
            "strength": {
              "numerator": {
                "value": 500,
                "code": "mg",
                "system": "http://unitsofmeasure.org",
                "unit": "mg"
              },
              "denominator": {
                "value": 1,
                "code": "1",
                "system": "http://unitsofmeasure.org",
                "unit": "1"
              }
            }
          }
        ],
        "form": {
          "coding": [
            {
              "code": "10219000",
              "system": "http://standardterms.edqm.eu",
              "display": "Tablet"
            }
          ]
        },
        "status": "active"
      }
    },
    {
      "request": {
        "method": "POST",
        "url": "Specimen"
      },
      "fullUrl": "https://www.medizininformatik-initiative.de/Specimen/mii-exa-test-data-patient-9-specimen-1",
      "resource": {
        "resourceType": "Specimen",
        "id": "mii-exa-test-data-patient-9-specimen-1",
        "meta": {
          "security": [
            {
              "code": "HTEST",
              "system": "http://terminology.hl7.org/CodeSystem/v3-ActReason",
              "display": "test health data"
            }
          ],
          "profile": [
            "https://www.medizininformatik-initiative.de/fhir/ext/modul-biobank/StructureDefinition/Specimen"
          ]
        },
        "extension": [
          {
            "url": "https://www.medizininformatik-initiative.de/fhir/ext/modul-biobank/StructureDefinition/VerwaltendeOrganisation",
            "valueReference": {
              "reference": "Organization/mii-exa-test-data-organization-biobank-charite"
            }
          },
          {
            "url": "https://www.medizininformatik-initiative.de/fhir/ext/modul-biobank/StructureDefinition/Diagnose",
            "valueReference": {
              "reference": "Condition/mii-exa-test-data-patient-9-diagnose-1"
            }
          }
        ],
        "identifier": [
          {
            "system": "https://www.charite.de/fhir/sid/Bioproben",
            "value": "BP_000016"
          }
        ],
        "type": {
          "coding": [
            {
              "code": "445295009",
              "system": "http://snomed.info/sct",
              "version": "http://snomed.info/sct/900000000000207008/version/20230731",
              "display": "Blood specimen with edetic acid (specimen)"
            }
          ]
        },
        "collection": {
          "bodySite": {
            "coding": [
              {
                "code": "368208006",
                "system": "http://snomed.info/sct",
                "version": "http://snomed.info/sct/900000000000207008/version/20230731",
                "display": "Left upper arm structure (body structure)"
              }
            ]
          },
          "collectedDateTime": "2024-02-22T06:30:00+01:00"
        },
        "container": [
          {
            "type": {
              "coding": [
                {
                  "code": "83059008",
                  "system": "http://snomed.info/sct",
                  "version": "http://snomed.info/sct/900000000000207008/version/20230731",
                  "display": "Tube, device (physical object)"
                }
              ]
            },
            "capacity": {
              "value": 5,
              "code": "ml",
              "system": "http://unitsofmeasure.org"
            },
            "specimenQuantity": {
              "value": 5,
              "code": "ml",
              "system": "http://unitsofmeasure.org"
            }
          }
        ],
        "status": "available",
        "subject": {
          "reference": "Patient/mii-exa-test-data-patient-9"
        }
      }
    },
    {
      "request": {
        "method": "POST",
        "url": "Specimen"
      },
      "fullUrl": "https://www.medizininformatik-initiative.de/Specimen/mii-exa-test-data-patient-9-specimen-2",
      "resource": {
        "resourceType": "Specimen",
        "id": "mii-exa-test-data-patient-9-specimen-2",
        "meta": {
          "security": [
            {
              "code": "HTEST",
              "system": "http://terminology.hl7.org/CodeSystem/v3-ActReason",
              "display": "test health data"
            }
          ],
          "profile": [
            "https://www.medizininformatik-initiative.de/fhir/ext/modul-biobank/StructureDefinition/Specimen"
          ]
        },
        "extension": [
          {
            "url": "https://www.medizininformatik-initiative.de/fhir/ext/modul-biobank/StructureDefinition/VerwaltendeOrganisation",
            "valueReference": {
              "reference": "Organization/mii-exa-test-data-organization-biobank-charite"
            }
          },
          {
            "url": "https://www.medizininformatik-initiative.de/fhir/ext/modul-biobank/StructureDefinition/Diagnose",
            "valueReference": {
              "reference": "Condition/mii-exa-test-data-patient-9-diagnose-1"
            }
          }
        ],
        "identifier": [
          {
            "system": "https://www.charite.de/fhir/sid/Bioproben",
            "value": "BP_000017"
          }
        ],
        "type": {
          "coding": [
            {
              "code": "119364003",
              "system": "http://snomed.info/sct",
              "version": "http://snomed.info/sct/900000000000207008/version/20230731",
              "display": "Serum specimen (specimen)"
            }
          ]
        },
        "collection": {
          "bodySite": {
            "coding": [
              {
                "code": "368209003",
                "system": "http://snomed.info/sct",
                "version": "http://snomed.info/sct/900000000000207008/version/20230731",
                "display": "Right upper arm structure (body structure)"
              }
            ]
          },
          "collectedDateTime": "2024-02-22T06:30:00+01:00"
        },
        "container": [
          {
            "type": {
              "coding": [
                {
                  "code": "83059008",
                  "system": "http://snomed.info/sct",
                  "version": "http://snomed.info/sct/900000000000207008/version/20230731",
                  "display": "Tube, device (physical object)"
                }
              ]
            },
            "capacity": {
              "value": 7,
              "code": "ml",
              "system": "http://unitsofmeasure.org"
            },
            "specimenQuantity": {
              "value": 7,
              "code": "ml",
              "system": "http://unitsofmeasure.org"
            }
          }
        ],
        "status": "available",
        "subject": {
          "reference": "Patient/mii-exa-test-data-patient-9"
        }
      }
    },
    {
      "request": {
        "method": "POST",
        "url": "Organization"
      },
      "fullUrl": "https://www.medizininformatik-initiative.de/Organization/mii-exa-test-data-organization-charite",
      "resource": {
        "resourceType": "Organization",
        "id": "mii-exa-test-data-organization-charite",
        "meta": {
          "security": [
            {
              "code": "HTEST",
              "system": "http://terminology.hl7.org/CodeSystem/v3-ActReason",
              "display": "test health data"
            }
          ]
        },
        "type": [
          {
            "coding": [
              {
                "code": "prov",
                "system": "http://terminology.hl7.org/CodeSystem/organization-type",
                "display": "Healthcare Provider"
              }
            ]
          }
        ],
        "name": "Charité – Universitätsmedizin Berlin"
      }
    },
    {
      "request": {
        "method": "POST",
        "url": "Organization"
      },
      "fullUrl": "https://www.medizininformatik-initiative.de/Organization/mii-exa-test-data-organization-labor-berlin",
      "resource": {
        "resourceType": "Organization",
        "id": "mii-exa-test-data-organization-labor-berlin",
        "meta": {
          "security": [
            {
              "code": "HTEST",
              "system": "http://terminology.hl7.org/CodeSystem/v3-ActReason",
              "display": "test health data"
            }
          ]
        },
        "type": [
          {
            "coding": [
              {
                "code": "prov",
                "system": "http://terminology.hl7.org/CodeSystem/organization-type",
                "display": "Healthcare Provider"
              }
            ]
          }
        ],
        "name": "Labor Berlin – Charité Vivantes GmbH"
      }
    },
    {
      "request": {
        "method": "POST",
        "url": "Organization"
      },
      "fullUrl": "https://www.medizininformatik-initiative.de/Organization/mii-exa-test-data-organization-biobank-charite",
      "resource": {
        "resourceType": "Organization",
        "id": "mii-exa-test-data-organization-biobank-charite",
        "meta": {
          "security": [
            {
              "code": "HTEST",
              "system": "http://terminology.hl7.org/CodeSystem/v3-ActReason",
              "display": "test health data"
            }
          ],
          "profile": [
            "https://www.medizininformatik-initiative.de/fhir/ext/modul-biobank/StructureDefinition/Organization"
          ]
        },
        "extension": [
          {
            "url": "https://www.medizininformatik-initiative.de/fhir/ext/modul-biobank/StructureDefinition/BeschreibungSammlung",
            "valueMarkdown": "Zentrale Biobank der Charité"
          }
        ],
        "identifier": [
          {
            "system": "http://www.bbmri-eric.eu/",
            "value": "de-12345"
          }
        ],
        "alias": [
          "ZeBanC"
        ],
        "contact": [
          {
            "extension": [
              {
                "url": "https://www.medizininformatik-initiative.de/fhir/ext/modul-biobank/StructureDefinition/KontaktRolle",
                "valueString": "Direktor"
              }
            ],
            "name": {
              "given": [
                "Koch"
              ],
              "prefix": [
                "Prof."
              ],
              "family": "Robert"
            },
            "telecom": [
              {
                "system": "email",
                "value": "robert.koch@charite.de"
              }
            ],
            "address": {
              "line": [
                "Südring 7"
              ],
              "postalCode": "13353",
              "city": "Berlin"
            },
            "purpose": {
              "coding": [
                {
                  "system": "https://www.medizininformatik-initiative.de/fhir/ext/modul-biobank/CodeSystem/ContactType",
                  "code": "RESEARCH"
                }
              ]
            }
          }
        ],
        "name": "Zentrale Biobank der Charité",
        "partOf": {
          "reference": "Organization/mii-exa-test-data-organization-charite"
        }
      }
    },
    {
      "request": {
        "method": "POST",
        "url": "Practitioner"
      },
      "fullUrl": "https://www.medizininformatik-initiative.de/Practitioner/mii-exa-test-data-practitioner-physician-1",
      "resource": {
        "resourceType": "Practitioner",
        "id": "mii-exa-test-data-practitioner-physician-1",
        "meta": {
          "security": [
            {
              "code": "HTEST",
              "system": "http://terminology.hl7.org/CodeSystem/v3-ActReason",
              "display": "test health data"
            }
          ]
        },
        "name": [
          {
            "given": [
              "Rahel"
            ],
            "family": "Hirsch"
          }
        ],
        "active": true
      }
    },
    {
      "request": {
        "method": "POST",
        "url": "PractitionerRole"
      },
      "fullUrl": "https://www.medizininformatik-initiative.de/PractitionerRole/mii-exa-test-data-practitioner-role-physician-1",
      "resource": {
        "resourceType": "PractitionerRole",
        "id": "mii-exa-test-data-practitioner-role-physician-1",
        "meta": {
          "security": [
            {
              "code": "HTEST",
              "system": "http://terminology.hl7.org/CodeSystem/v3-ActReason",
              "display": "test health data"
            }
          ],
          "profile": [
            "https://www.medizininformatik-initiative.de/fhir/modul-studie/StructureDefinition/mii-pr-studie-beteiligte-person"
          ]
        },
        "code": [
          {
            "coding": [
              {
                "code": "309343006",
                "system": "http://snomed.info/sct",
                "version": "http://snomed.info/sct/900000000000207008/version/20230731",
                "display": "Physician (occupation)"
              }
            ]
          }
        ],
        "active": true,
        "practitioner": {
          "reference": "Practitioner/mii-exa-test-data-practitioner-physician-1"
        },
        "organization": {
          "reference": "Organization/mii-exa-test-data-organization-charite"
        }
      }
    },
    {
      "request": {
        "method": "POST",
        "url": "Device"
      },
      "fullUrl": "https://www.medizininformatik-initiative.de/Device/mii-exa-test-data-device-roche-cobas",
      "resource": {
        "resourceType": "Device",
        "id": "mii-exa-test-data-device-roche-cobas",
        "meta": {
          "security": [
            {
              "code": "HTEST",
              "system": "http://terminology.hl7.org/CodeSystem/v3-ActReason",
              "display": "test health data"
            }
          ]
        },
        "identifier": [
          {
            "system": "https://www.charite.de/fhir/sid/Laboratory-device-identifier",
            "value": "RocheCobas"
          }
        ],
        "deviceName": [
          {
            "name": "cobas",
            "type": "manufacturer-name"
          }
        ],
        "status": "active",
        "manufacturer": "Roche"
      }
    },
    {
      "request": {
        "method": "POST",
        "url": "Device"
      },
      "fullUrl": "https://www.medizininformatik-initiative.de/Device/mii-exa-test-data-device-roche-cobas-c303",
      "resource": {
        "resourceType": "Device",
        "id": "mii-exa-test-data-device-roche-cobas-c303",
        "meta": {
          "security": [
            {
              "code": "HTEST",
              "system": "http://terminology.hl7.org/CodeSystem/v3-ActReason",
              "display": "test health data"
            }
          ]
        },
        "identifier": [
          {
            "system": "https://www.charite.de/fhir/sid/Laboratory-device-identifier",
            "value": "RocheCobasC303"
          }
        ],
        "deviceName": [
          {
            "name": "cobas",
            "type": "manufacturer-name"
          }
        ],
        "property": [
          {
            "type": {
              "coding": [
                {
                  "code": "69684",
                  "system": "urn:iso:std:iso:11073:10101"
                }
              ]
            }
          },
          {
            "type": {
              "coding": [
                {
                  "code": "69652",
                  "system": "urn:iso:std:iso:11073:10101"
                }
              ]
            }
          },
          {
            "type": {
              "coding": [
                {
                  "code": "69844",
                  "system": "urn:iso:std:iso:11073:10101"
                }
              ]
            }
          }
        ],
        "status": "active",
        "manufacturer": "Roche",
        "modelNumber": "c 303",
        "parent": {
          "reference": "Device/mii-exa-test-data-device-roche-cobas"
        }
      }
    },
    {
      "request": {
        "method": "POST",
        "url": "Device"
      },
      "fullUrl": "https://www.medizininformatik-initiative.de/Device/mii-exa-test-data-device-roche-cobas-e402",
      "resource": {
        "resourceType": "Device",
        "id": "mii-exa-test-data-device-roche-cobas-e402",
        "meta": {
          "security": [
            {
              "code": "HTEST",
              "system": "http://terminology.hl7.org/CodeSystem/v3-ActReason",
              "display": "test health data"
            }
          ]
        },
        "identifier": [
          {
            "system": "https://www.charite.de/fhir/sid/Laboratory-device-identifier",
            "value": "RocheCobasE402"
          }
        ],
        "deviceName": [
          {
            "name": "cobas",
            "type": "manufacturer-name"
          }
        ],
        "property": [
          {
            "type": {
              "coding": [
                {
                  "code": "160220",
                  "system": "urn:iso:std:iso:11073:10101"
                }
              ]
            }
          }
        ],
        "status": "active",
        "manufacturer": "Roche",
        "modelNumber": "e 402",
        "parent": {
          "reference": "Device/mii-exa-test-data-device-roche-cobas"
        }
      }
    },
    {
      "request": {
        "method": "POST",
        "url": "DeviceMetric"
      },
      "fullUrl": "https://www.medizininformatik-initiative.de/DeviceMetric/mii-exa-test-data-devicemetric-roche-cobas-c303-1",
      "resource": {
        "resourceType": "DeviceMetric",
        "id": "mii-exa-test-data-devicemetric-roche-cobas-c303-1",
        "meta": {
          "security": [
            {
              "code": "HTEST",
              "system": "http://terminology.hl7.org/CodeSystem/v3-ActReason",
              "display": "test health data"
            }
          ]
        },
        "identifier": [
          {
            "system": "https://www.charite.de/fhir/sid/Laboratory-device-identifier",
            "value": "RocheCobasC303-160192"
          }
        ],
        "type": {
          "coding": [
            {
              "code": "160192",
              "system": "urn:iso:std:iso:11073:10101"
            }
          ]
        },
        "source": {
          "reference": "Device/mii-exa-test-data-device-roche-cobas-c303"
        },
        "category": "measurement"
      }
    }
  ],
  "type": "transaction",
  "timestamp": "2025-06-18T13:59:00+02:00"
}
