{
  "resourceType": "Bundle",
  "id": "mii-exa-test-data-bundle-pat-1",
  "meta": {
    "security": [
      {
        "code": "HTEST",
        "system": "http://terminology.hl7.org/CodeSystem/v3-ActReason",
        "display": "test health data"
      }
    ]
  },
  "entry": [
    {
      "request": {
        "method": "POST",
        "url": "Patient"
      },
      "fullUrl": "https://www.medizininformatik-initiative.de/Patient/mii-exa-test-data-patient-1",
      "resource": {
        "resourceType": "Patient",
        "id": "mii-exa-test-data-patient-1",
        "meta": {
          "security": [
            {
              "code": "HTEST",
              "system": "http://terminology.hl7.org/CodeSystem/v3-ActReason",
              "display": "test health data"
            }
          ],
          "profile": [
            "https://www.medizininformatik-initiative.de/fhir/core/modul-person/StructureDefinition/Patient",
            "http://fhir.de/ConsentManagement/StructureDefinition/Patient"
          ]
        },
        "identifier": [
          {
            "assigner": {
              "identifier": {
                "use": "official",
                "value": "987654321",
                "system": "http://fhir.de/sid/arge-ik/iknr"
              }
            },
            "use": "official",
            "type": {
              "coding": [
                {
                  "code": "KVZ10",
                  "system": "http://fhir.de/CodeSystem/identifier-type-de-basis"
                }
              ]
            },
            "system": "http://fhir.de/sid/gkv/kvid-10",
            "value": "A123456780"
          },
          {
            "assigner": {
              "identifier": {
                "type": {
                  "coding": [
                    {
                      "code": "XX",
                      "system": "http://terminology.hl7.org/CodeSystem/v2-0203"
                    }
                  ]
                },
                "system": "https://www.medizininformatik-initiative.de/fhir/core/CodeSystem/core-location-identifier",
                "value": "Charité"
              }
            },
            "type": {
              "coding": [
                {
                  "code": "MR",
                  "system": "http://terminology.hl7.org/CodeSystem/v2-0203"
                }
              ]
            },
            "system": "https://www.charite.de/fhir/sid/patientenidentifikation",
            "value": "808439625"
          }
        ],
        "name": [
          {
            "given": [
              "Christian",
              "Ludwig"
            ],
            "prefix": [
              "Prinz von Preußen"
            ],
            "_prefix": [
              {
                "extension": [
                  {
                    "url": "http://hl7.org/fhir/StructureDefinition/iso21090-EN-qualifier",
                    "valueCode": "NB"
                  }
                ]
              }
            ],
            "suffix": [
              "aus dem Haus der Hohenzollern"
            ],
            "use": "official",
            "family": "Markgraf von Brandenburg-Schwedt",
            "_family": {
              "extension": [
                {
                  "url": "http://fhir.de/StructureDefinition/humanname-namenszusatz",
                  "valueString": "Markgraf"
                },
                {
                  "url": "http://hl7.org/fhir/StructureDefinition/humanname-own-name",
                  "valueString": "Brandenburg-Schwedt"
                },
                {
                  "url": "http://hl7.org/fhir/StructureDefinition/humanname-own-prefix",
                  "valueString": "von"
                }
              ]
            }
          }
        ],
        "address": [
          {
            "extension": [
              {
                "url": "http://hl7.org/fhir/StructureDefinition/iso21090-ADXP-precinct",
                "valueString": "Malchow"
              }
            ],
            "line": [
              "Dorfstraße 9",
              "Schloss",
              "Malchow"
            ],
            "_line": [
              {
                "extension": [
                  {
                    "url": "http://hl7.org/fhir/StructureDefinition/iso21090-ADXP-streetName",
                    "valueString": "Dorfstraße"
                  },
                  {
                    "url": "http://hl7.org/fhir/StructureDefinition/iso21090-ADXP-houseNumber",
                    "valueString": "9"
                  }
                ]
              },
              {
                "extension": [
                  {
                    "url": "http://hl7.org/fhir/StructureDefinition/iso21090-ADXP-additionalLocator",
                    "valueString": "Schloss"
                  }
                ]
              },
              null
            ],
            "type": "both",
            "city": "Berlin",
            "_city": {
              "extension": [
                {
                  "url": "http://fhir.de/StructureDefinition/destatis/ags",
                  "valueCoding": {
                    "code": "11000000",
                    "system": "http://fhir.de/sid/destatis/ags"
                  }
                }
              ]
            },
            "postalCode": "13051",
            "country": "DE"
          }
        ],
        "gender": "male",
        "birthDate": "1977-05-24",
        "deceasedDateTime": "2024-02-22"
      }
    },
    {
      "request": {
        "method": "POST",
        "url": "Consent"
      },
      "fullUrl": "https://www.medizininformatik-initiative.de/Consent/mii-exa-test-data-patient-1-consent-1",
      "resource": {
        "resourceType": "Consent",
        "id": "mii-exa-test-data-patient-1-consent-1",
        "meta": {
          "security": [
            {
              "code": "HTEST",
              "system": "http://terminology.hl7.org/CodeSystem/v3-ActReason",
              "display": "test health data"
            }
          ],
          "profile": [
            "https://www.medizininformatik-initiative.de/fhir/modul-consent/StructureDefinition/mii-pr-consent-einwilligung"
          ]
        },
        "category": [
          {
            "coding": [
              {
                "system": "http://loinc.org",
                "code": "57016-8"
              }
            ]
          },
          {
            "coding": [
              {
                "code": "2.16.840.1.113883.3.1937.777.24.2.184",
                "system": "https://www.medizininformatik-initiative.de/fhir/modul-consent/CodeSystem/mii-cs-consent-consent_category"
              }
            ]
          }
        ],
        "organization": [
          {
            "reference": "Organization/mii-exa-test-data-organization-charite"
          }
        ],
        "policy": [
          {
            "uri": "urn:oid:2.16.840.1.113883.3.1937.777.24.2.1791"
          }
        ],
        "provision": {
          "period": {
            "start": "2024-02-23",
            "end": "2054-01-31"
          },
          "provision": [
            {
              "period": {
                "start": "2024-02-23",
                "end": "2054-01-31"
              },
              "code": [
                {
                  "coding": [
                    {
                      "code": "2.16.840.1.113883.3.1937.777.24.5.3.6",
                      "system": "urn:oid:2.16.840.1.113883.3.1937.777.24.5.3",
                      "display": "MDAT erheben"
                    }
                  ]
                }
              ],
              "type": "permit"
            },
            {
              "period": {
                "start": "2024-02-23",
                "end": "2054-01-31"
              },
              "code": [
                {
                  "coding": [
                    {
                      "code": "2.16.840.1.113883.3.1937.777.24.5.3.7",
                      "system": "urn:oid:2.16.840.1.113883.3.1937.777.24.5.3",
                      "display": "MDAT speichern, verarbeiten"
                    }
                  ]
                }
              ],
              "type": "permit"
            },
            {
              "period": {
                "start": "2024-02-23",
                "end": "2054-01-31"
              },
              "code": [
                {
                  "coding": [
                    {
                      "code": "2.16.840.1.113883.3.1937.777.24.5.3.8",
                      "system": "urn:oid:2.16.840.1.113883.3.1937.777.24.5.3",
                      "display": "MDAT wissenschaftlich nutzen EU DSGVO NIVEAU"
                    }
                  ]
                }
              ],
              "type": "permit"
            },
            {
              "period": {
                "start": "2024-02-23",
                "end": "2054-01-31"
              },
              "code": [
                {
                  "coding": [
                    {
                      "code": "2.16.840.1.113883.3.1937.777.24.5.3.19",
                      "system": "urn:oid:2.16.840.1.113883.3.1937.777.24.5.3",
                      "display": "BIOMAT erheben"
                    }
                  ]
                }
              ],
              "type": "permit"
            },
            {
              "period": {
                "start": "2024-02-23",
                "end": "2054-01-31"
              },
              "code": [
                {
                  "coding": [
                    {
                      "code": "2.16.840.1.113883.3.1937.777.24.5.3.9",
                      "system": "urn:oid:2.16.840.1.113883.3.1937.777.24.5.3",
                      "display": "MDAT zusammenfuehren Dritte"
                    }
                  ]
                }
              ],
              "type": "permit"
            },
            {
              "period": {
                "start": "2024-02-23",
                "end": "2054-01-31"
              },
              "code": [
                {
                  "coding": [
                    {
                      "code": "2.16.840.1.113883.3.1937.777.24.5.3.20",
                      "system": "urn:oid:2.16.840.1.113883.3.1937.777.24.5.3",
                      "display": "BIOMAT lagern verarbeiten"
                    }
                  ]
                }
              ],
              "type": "permit"
            },
            {
              "period": {
                "start": "2024-02-23",
                "end": "2054-01-31"
              },
              "code": [
                {
                  "coding": [
                    {
                      "code": "2.16.840.1.113883.3.1937.777.24.5.3.22",
                      "system": "urn:oid:2.16.840.1.113883.3.1937.777.24.5.3",
                      "display": "BIOMAT wissenschaftlich nutzen EU DSGVO NIVEAU"
                    }
                  ]
                }
              ],
              "type": "permit"
            }
          ],
          "type": "deny"
        },
        "scope": {
          "coding": [
            {
              "system": "http://terminology.hl7.org/CodeSystem/consentscope",
              "code": "research"
            }
          ]
        },
        "status": "active",
        "patient": {
          "reference": "Patient/mii-exa-test-data-patient-1"
        },
        "dateTime": "2024-02-23T12:00:00+01:00"
      }
    },
    {
      "request": {
        "method": "POST",
        "url": "Observation"
      },
      "fullUrl": "https://www.medizininformatik-initiative.de/Observation/mii-exa-test-data-patient-1-vitalstatus-1",
      "resource": {
        "resourceType": "Observation",
        "id": "mii-exa-test-data-patient-1-vitalstatus-1",
        "meta": {
          "security": [
            {
              "code": "HTEST",
              "system": "http://terminology.hl7.org/CodeSystem/v3-ActReason",
              "display": "test health data"
            }
          ],
          "profile": [
            "https://www.medizininformatik-initiative.de/fhir/core/modul-person/StructureDefinition/Vitalstatus"
          ]
        },
        "category": [
          {
            "coding": [
              {
                "system": "http://terminology.hl7.org/CodeSystem/observation-category",
                "code": "survey"
              }
            ]
          }
        ],
        "status": "final",
        "code": {
          "coding": [
            {
              "system": "http://loinc.org",
              "code": "67162-8"
            }
          ]
        },
        "subject": {
          "reference": "Patient/mii-exa-test-data-patient-1"
        },
        "effectiveDateTime": "2024-02-21T16:46:17+01:00",
        "valueCodeableConcept": {
          "coding": [
            {
              "code": "T",
              "system": "https://www.medizininformatik-initiative.de/fhir/core/modul-person/CodeSystem/Vitalstatus"
            }
          ]
        }
      }
    },
    {
      "request": {
        "method": "POST",
        "url": "Condition"
      },
      "fullUrl": "https://www.medizininformatik-initiative.de/Condition/mii-exa-test-data-patient-1-todesursache-1",
      "resource": {
        "resourceType": "Condition",
        "id": "mii-exa-test-data-patient-1-todesursache-1",
        "meta": {
          "security": [
            {
              "code": "HTEST",
              "system": "http://terminology.hl7.org/CodeSystem/v3-ActReason",
              "display": "test health data"
            }
          ],
          "profile": [
            "https://www.medizininformatik-initiative.de/fhir/core/modul-person/StructureDefinition/Todesursache"
          ]
        },
        "code": {
          "coding": [
            {
              "system": "http://hl7.org/fhir/sid/icd-10",
              "code": "A15.0",
              "version": "2019"
            }
          ]
        },
        "note": [
          {
            "text": "Tuberkulose einschließlich ihrer Folgezustände"
          }
        ],
        "category": [
          {
            "coding": [
              {
                "system": "http://snomed.info/sct",
                "code": "16100001"
              },
              {
                "system": "http://loinc.org",
                "code": "79378-6"
              }
            ]
          }
        ],
        "clinicalStatus": {
          "coding": [
            {
              "code": "active",
              "system": "http://terminology.hl7.org/CodeSystem/condition-clinical"
            }
          ]
        },
        "verificationStatus": {
          "coding": [
            {
              "code": "confirmed",
              "system": "http://terminology.hl7.org/CodeSystem/condition-ver-status"
            }
          ]
        },
        "subject": {
          "reference": "Patient/mii-exa-test-data-patient-1"
        },
        "recordedDate": "2024-02-22"
      }
    },
    {
      "request": {
        "method": "POST",
        "url": "Condition"
      },
      "fullUrl": "https://www.medizininformatik-initiative.de/Condition/mii-exa-test-data-patient-1-diagnose-1",
      "resource": {
        "resourceType": "Condition",
        "id": "mii-exa-test-data-patient-1-diagnose-1",
        "meta": {
          "security": [
            {
              "code": "HTEST",
              "system": "http://terminology.hl7.org/CodeSystem/v3-ActReason",
              "display": "test health data"
            }
          ],
          "profile": [
            "https://www.medizininformatik-initiative.de/fhir/core/modul-diagnose/StructureDefinition/Diagnose"
          ]
        },
        "code": {
          "coding": [
            {
              "extension": [
                {
                  "url": "http://fhir.de/StructureDefinition/icd-10-gm-mehrfachcodierungs-kennzeichen",
                  "valueCoding": {
                    "code": "†",
                    "system": "http://fhir.de/CodeSystem/icd-10-gm-mehrfachcodierungs-kennzeichen"
                  }
                },
                {
                  "url": "http://fhir.de/StructureDefinition/seitenlokalisation",
                  "valueCoding": {
                    "code": "B",
                    "system": "https://fhir.kbv.de/CodeSystem/KBV_CS_SFHIR_ICD_SEITENLOKALISATION",
                    "display": "beiderseits"
                  }
                },
                {
                  "url": "http://fhir.de/StructureDefinition/icd-10-gm-diagnosesicherheit",
                  "valueCoding": {
                    "code": "G",
                    "system": "https://fhir.kbv.de/CodeSystem/KBV_CS_SFHIR_ICD_DIAGNOSESICHERHEIT",
                    "display": "gesicherte Diagnose"
                  }
                }
              ],
              "system": "http://fhir.de/CodeSystem/bfarm/icd-10-gm",
              "code": "B05.3",
              "version": "2023"
            },
            {
              "system": "http://fhir.de/CodeSystem/bfarm/alpha-id",
              "code": "I29578",
              "version": "2023",
              "display": "Masern mit Otitis"
            },
            {
              "system": "http://snomed.info/sct",
              "code": "13420004",
              "version": "http://snomed.info/sct/900000000000207008/version/20230731",
              "display": "Post measles otitis media (disorder)"
            }
          ]
        },
        "note": [
          {
            "text": "Masernotitis"
          }
        ],
        "bodySite": [
          {
            "coding": [
              {
                "system": "http://snomed.info/sct",
                "code": "25342003",
                "version": "http://snomed.info/sct/900000000000207008/version/20230731",
                "display": "Middle ear structure (body structure)"
              }
            ]
          }
        ],
        "clinicalStatus": {
          "coding": [
            {
              "code": "active",
              "system": "http://terminology.hl7.org/CodeSystem/condition-clinical"
            }
          ]
        },
        "verificationStatus": {
          "coding": [
            {
              "code": "confirmed",
              "system": "http://terminology.hl7.org/CodeSystem/condition-ver-status"
            }
          ]
        },
        "subject": {
          "reference": "Patient/mii-exa-test-data-patient-1"
        },
        "recordedDate": "2024-02-21",
        "onsetDateTime": "2024-02-21"
      }
    },
    {
      "request": {
        "method": "POST",
        "url": "Condition"
      },
      "fullUrl": "https://www.medizininformatik-initiative.de/Condition/mii-exa-test-data-patient-1-diagnose-2",
      "resource": {
        "resourceType": "Condition",
        "id": "mii-exa-test-data-patient-1-diagnose-2",
        "meta": {
          "security": [
            {
              "code": "HTEST",
              "system": "http://terminology.hl7.org/CodeSystem/v3-ActReason",
              "display": "test health data"
            }
          ],
          "profile": [
            "https://www.medizininformatik-initiative.de/fhir/core/modul-diagnose/StructureDefinition/Diagnose"
          ]
        },
        "code": {
          "coding": [
            {
              "system": "http://fhir.de/CodeSystem/bfarm/icd-10-gm",
              "code": "H67.1",
              "version": "2023",
              "display": "Otitis media bei anderenorts klassifizierten Viruskrankheiten"
            }
          ]
        },
        "note": [
          {
            "text": "Masernotitis"
          }
        ],
        "extension": [
          {
            "url": "http://hl7.org/fhir/StructureDefinition/condition-related",
            "valueReference": {
              "reference": "Condition/mii-exa-test-data-patient-1-diagnose-1"
            }
          }
        ],
        "clinicalStatus": {
          "coding": [
            {
              "code": "active",
              "system": "http://terminology.hl7.org/CodeSystem/condition-clinical"
            }
          ]
        },
        "verificationStatus": {
          "coding": [
            {
              "code": "confirmed",
              "system": "http://terminology.hl7.org/CodeSystem/condition-ver-status"
            }
          ]
        },
        "subject": {
          "reference": "Patient/mii-exa-test-data-patient-1"
        },
        "recordedDate": "2024-02-21",
        "onsetDateTime": "2024-02-21"
      }
    },
    {
      "request": {
        "method": "POST",
        "url": "Encounter"
      },
      "fullUrl": "https://www.medizininformatik-initiative.de/Encounter/mii-exa-test-data-patient-1-encounter-1",
      "resource": {
        "resourceType": "Encounter",
        "id": "mii-exa-test-data-patient-1-encounter-1",
        "meta": {
          "security": [
            {
              "code": "HTEST",
              "system": "http://terminology.hl7.org/CodeSystem/v3-ActReason",
              "display": "test health data"
            }
          ],
          "profile": [
            "https://www.medizininformatik-initiative.de/fhir/core/modul-fall/StructureDefinition/KontaktGesundheitseinrichtung"
          ]
        },
        "identifier": [
          {
            "type": {
              "coding": [
                {
                  "system": "http://terminology.hl7.org/CodeSystem/v2-0203",
                  "code": "VN"
                }
              ]
            },
            "system": "https://www.charite.de/fhir/NamingSystem/Aufnahmenummern",
            "value": "MII_0000001"
          }
        ],
        "type": [
          {
            "coding": [
              {
                "system": "http://fhir.de/CodeSystem/Kontaktebene",
                "code": "einrichtungskontakt"
              }
            ]
          },
          {
            "coding": [
              {
                "system": "http://fhir.de/CodeSystem/kontaktart-de",
                "code": "normalstationaer"
              }
            ]
          }
        ],
        "serviceType": {
          "coding": [
            {
              "system": "http://fhir.de/CodeSystem/dkgev/Fachabteilungsschluessel",
              "code": "0100"
            }
          ]
        },
        "extension": [
          {
            "extension": [
              {
                "url": "ErsteUndZweiteStelle",
                "valueCoding": {
                  "code": "01",
                  "system": "http://fhir.de/CodeSystem/dkgev/AufnahmegrundErsteUndZweiteStelle",
                  "display": "Krankenhausbehandlung, vollstationär"
                }
              },
              {
                "url": "DritteStelle",
                "valueCoding": {
                  "code": "0",
                  "system": "http://fhir.de/CodeSystem/dkgev/AufnahmegrundDritteStelle",
                  "display": "Anderes"
                }
              },
              {
                "url": "VierteStelle",
                "valueCoding": {
                  "code": "1",
                  "system": "http://fhir.de/CodeSystem/dkgev/AufnahmegrundVierteStelle",
                  "display": "Normalfall"
                }
              }
            ],
            "url": "http://fhir.de/StructureDefinition/Aufnahmegrund"
          }
        ],
        "period": {
          "start": "2024-02-14",
          "end": "2024-02-22"
        },
        "diagnosis": [
          {
            "condition": {
              "reference": "Condition/mii-exa-test-data-patient-1-diagnose-1"
            },
            "use": {
              "coding": [
                {
                  "code": "AD",
                  "system": "http://terminology.hl7.org/CodeSystem/diagnosis-role",
                  "display": "Admission diagnosis"
                }
              ]
            },
            "rank": 1
          },
          {
            "condition": {
              "reference": "Condition/mii-exa-test-data-patient-1-todesursache-1"
            },
            "use": {
              "coding": [
                {
                  "code": "DD",
                  "system": "http://terminology.hl7.org/CodeSystem/diagnosis-role",
                  "display": "Discharge diagnosis"
                }
              ]
            },
            "rank": 2
          }
        ],
        "hospitalization": {
          "dischargeDisposition": {
            "extension": [
              {
                "extension": [
                  {
                    "url": "ErsteUndZweiteStelle",
                    "valueCoding": {
                      "code": "07",
                      "system": "http://fhir.de/CodeSystem/dkgev/EntlassungsgrundErsteUndZweiteStelle",
                      "display": "Tod"
                    }
                  },
                  {
                    "url": "DritteStelle",
                    "valueCoding": {
                      "code": "9",
                      "system": "http://fhir.de/CodeSystem/dkgev/EntlassungsgrundDritteStelle",
                      "display": "keine Angabe"
                    }
                  }
                ],
                "url": "http://fhir.de/StructureDefinition/Entlassungsgrund"
              }
            ]
          },
          "admitSource": {
            "coding": [
              {
                "code": "E",
                "system": "http://fhir.de/CodeSystem/dgkev/Aufnahmeanlass",
                "display": "Einweisung durch einen Arzt"
              }
            ]
          }
        },
        "location": [
          {
            "location": {
              "identifier": {
                "system": "https://www.charite.de/fhir/sid/Zimmernummern",
                "value": "RHC-06-210b"
              },
              "display": "RHC-06-210b"
            },
            "physicalType": {
              "coding": [
                {
                  "system": "http://terminology.hl7.org/CodeSystem/location-physical-type",
                  "code": "ro"
                }
              ]
            }
          },
          {
            "location": {
              "identifier": {
                "system": "https://www.charite.de/fhir/sid/Bettennummern",
                "value": "RHC-06-210b-02"
              },
              "display": "RHC-06-210b-02"
            },
            "physicalType": {
              "coding": [
                {
                  "system": "http://terminology.hl7.org/CodeSystem/location-physical-type",
                  "code": "bd"
                }
              ]
            }
          },
          {
            "location": {
              "identifier": {
                "system": "https://www.charite.de/fhir/sid/Stationsnummern",
                "value": "RHC-06"
              },
              "display": "RHC-06"
            },
            "physicalType": {
              "coding": [
                {
                  "system": "http://terminology.hl7.org/CodeSystem/location-physical-type",
                  "code": "wa"
                }
              ]
            }
          }
        ],
        "serviceProvider": {
          "identifier": {
            "system": "https://www.medizininformatik-initiative.de/fhir/core/CodeSystem/core-location-identifier",
            "value": "Charité"
          },
          "reference": "Organization/mii-exa-test-data-organization-charite",
          "display": "Charité - Universitätsmedizin Berlin"
        },
        "status": "finished",
        "class": {
          "code": "IMP",
          "system": "http://terminology.hl7.org/CodeSystem/v3-ActCode"
        },
        "subject": {
          "reference": "Patient/mii-exa-test-data-patient-1"
        }
      }
    },
    {
      "request": {
        "method": "POST",
        "url": "Encounter"
      },
      "fullUrl": "https://www.medizininformatik-initiative.de/Encounter/mii-exa-test-data-patient-1-encounter-2",
      "resource": {
        "resourceType": "Encounter",
        "id": "mii-exa-test-data-patient-1-encounter-2",
        "meta": {
          "security": [
            {
              "code": "HTEST",
              "system": "http://terminology.hl7.org/CodeSystem/v3-ActReason",
              "display": "test health data"
            }
          ],
          "profile": [
            "https://www.medizininformatik-initiative.de/fhir/core/modul-fall/StructureDefinition/KontaktGesundheitseinrichtung"
          ]
        },
        "identifier": [
          {
            "type": {
              "coding": [
                {
                  "system": "http://terminology.hl7.org/CodeSystem/v2-0203",
                  "code": "VN"
                }
              ]
            },
            "system": "https://www.charite.de/fhir/NamingSystem/Aufnahmenummern",
            "value": "MII_0000002"
          }
        ],
        "type": [
          {
            "coding": [
              {
                "system": "http://fhir.de/CodeSystem/Kontaktebene",
                "code": "versorgungsstellenkontakt"
              }
            ]
          },
          {
            "coding": [
              {
                "system": "http://fhir.de/CodeSystem/kontaktart-de",
                "code": "operation"
              }
            ]
          }
        ],
        "serviceType": {
          "coding": [
            {
              "system": "http://fhir.de/CodeSystem/dkgev/Fachabteilungsschluessel",
              "code": "2000"
            }
          ]
        },
        "period": {
          "start": "2024-02-20T10:00:00+01:00",
          "end": "2024-02-20T13:00:00+01:00"
        },
        "status": "finished",
        "class": {
          "code": "IMP",
          "system": "http://terminology.hl7.org/CodeSystem/v3-ActCode"
        },
        "subject": {
          "reference": "Patient/mii-exa-test-data-patient-1"
        },
        "partOf": {
          "reference": "Encounter/mii-exa-test-data-patient-1-encounter-1"
        }
      }
    },
    {
      "request": {
        "method": "POST",
        "url": "Organization"
      },
      "fullUrl": "https://www.medizininformatik-initiative.de/Organization/mii-exa-test-data-organization-charite",
      "resource": {
        "resourceType": "Organization",
        "id": "mii-exa-test-data-organization-charite",
        "meta": {
          "security": [
            {
              "code": "HTEST",
              "system": "http://terminology.hl7.org/CodeSystem/v3-ActReason",
              "display": "test health data"
            }
          ]
        },
        "type": [
          {
            "coding": [
              {
                "code": "prov",
                "system": "http://terminology.hl7.org/CodeSystem/organization-type",
                "display": "Healthcare Provider"
              }
            ]
          }
        ],
        "name": "Charité – Universitätsmedizin Berlin"
      }
    },
    {
      "request": {
        "method": "POST",
        "url": "Procedure"
      },
      "fullUrl": "https://www.medizininformatik-initiative.de/Procedure/mii-exa-test-data-patient-1-prozedur-1",
      "resource": {
        "resourceType": "Procedure",
        "id": "mii-exa-test-data-patient-1-prozedur-1",
        "meta": {
          "security": [
            {
              "code": "HTEST",
              "system": "http://terminology.hl7.org/CodeSystem/v3-ActReason",
              "display": "test health data"
            }
          ],
          "profile": [
            "https://www.medizininformatik-initiative.de/fhir/core/modul-prozedur/StructureDefinition/Procedure"
          ]
        },
        "category": {
          "coding": [
            {
              "system": "http://snomed.info/sct",
              "code": "387713003",
              "version": "http://snomed.info/sct/900000000000207008/version/20230731"
            }
          ]
        },
        "code": {
          "coding": [
            {
              "system": "http://snomed.info/sct",
              "code": "726427004",
              "version": "http://snomed.info/sct/900000000000207008/version/20230731"
            },
            {
              "system": "http://fhir.de/CodeSystem/bfarm/ops",
              "code": "5-323.51",
              "version": "2023"
            }
          ]
        },
        "bodySite": [
          {
            "coding": [
              {
                "code": "44714003",
                "system": "http://snomed.info/sct",
                "version": "http://snomed.info/sct/900000000000207008/version/20230731"
              }
            ]
          }
        ],
        "note": [
          {
            "text": "Exzision und Resektion an Lunge"
          }
        ],
        "performedPeriod": {
          "start": "2024-02-20T10:14:00+01:00",
          "end": "2024-02-20T12:47:00+01:00"
        },
        "extension": [
          {
            "url": "http://fhir.de/StructureDefinition/ProzedurDokumentationsdatum",
            "valueDateTime": "2024-02-20T16:15:00+01:00"
          },
          {
            "url": "https://www.medizininformatik-initiative.de/fhir/core/modul-prozedur/StructureDefinition/Durchfuehrungsabsicht",
            "valueCoding": {
              "system": "http://snomed.info/sct",
              "code": "262202000",
              "version": "http://snomed.info/sct/900000000000207008/version/20230731"
            }
          }
        ],
        "status": "completed",
        "subject": {
          "reference": "Patient/mii-exa-test-data-patient-1"
        },
        "encounter": {
          "reference": "Encounter/mii-exa-test-data-patient-1-encounter-1"
        },
        "recorder": {
          "reference": "PractitionerRole/mii-exa-test-data-practitioner-role-physician-1"
        }
      }
    },
    {
      "request": {
        "method": "POST",
        "url": "Procedure"
      },
      "fullUrl": "https://www.medizininformatik-initiative.de/Procedure/mii-exa-test-data-patient-1-prozedur-2",
      "resource": {
        "resourceType": "Procedure",
        "id": "mii-exa-test-data-patient-1-prozedur-2",
        "meta": {
          "security": [
            {
              "code": "HTEST",
              "system": "http://terminology.hl7.org/CodeSystem/v3-ActReason",
              "display": "test health data"
            }
          ],
          "profile": [
            "https://www.medizininformatik-initiative.de/fhir/core/modul-prozedur/StructureDefinition/Procedure"
          ]
        },
        "category": {
          "coding": [
            {
              "system": "http://snomed.info/sct",
              "code": "18629005",
              "version": "http://snomed.info/sct/900000000000207008/version/20230731"
            }
          ]
        },
        "code": {
          "coding": [
            {
              "system": "http://snomed.info/sct",
              "code": "281790008",
              "version": "http://snomed.info/sct/900000000000207008/version/20230731"
            },
            {
              "system": "http://fhir.de/CodeSystem/bfarm/ops",
              "code": "6-00g.33",
              "version": "2024"
            }
          ]
        },
        "bodySite": [
          {
            "coding": [
              {
                "code": "789218009",
                "system": "http://snomed.info/sct",
                "version": "http://snomed.info/sct/900000000000207008/version/20230731"
              }
            ]
          }
        ],
        "note": [
          {
            "text": "Dalbavancin parenteral"
          }
        ],
        "performedPeriod": {
          "start": "2024-02-16T10:20:00.000+01:00",
          "end": "2024-02-16T10:50:00.000+01:00"
        },
        "extension": [
          {
            "url": "https://www.medizininformatik-initiative.de/fhir/core/modul-prozedur/StructureDefinition/Durchfuehrungsabsicht",
            "valueCoding": {
              "system": "http://snomed.info/sct",
              "code": "262202000",
              "version": "http://snomed.info/sct/900000000000207008/version/20230731"
            }
          }
        ],
        "status": "completed",
        "subject": {
          "reference": "Patient/mii-exa-test-data-patient-1"
        },
        "encounter": {
          "reference": "Encounter/mii-exa-test-data-patient-1-encounter-1"
        }
      }
    },
    {
      "request": {
        "method": "POST",
        "url": "List"
      },
      "fullUrl": "https://www.medizininformatik-initiative.de/List/mii-exa-test-data-patient-1-list-aufnahmemedikation",
      "resource": {
        "resourceType": "List",
        "id": "mii-exa-test-data-patient-1-list-aufnahmemedikation",
        "meta": {
          "security": [
            {
              "code": "HTEST",
              "system": "http://terminology.hl7.org/CodeSystem/v3-ActReason",
              "display": "test health data"
            }
          ],
          "profile": [
            "https://www.medizininformatik-initiative.de/fhir/core/modul-medikation/StructureDefinition/medikationsliste"
          ]
        },
        "code": {
          "coding": [
            {
              "system": "http://terminology.hl7.org/CodeSystem/list-example-use-codes",
              "code": "medications"
            },
            {
              "system": "http://ihe-d.de/CodeSystems/FallkontextBeiDokumentenerstellung",
              "code": "E210"
            }
          ]
        },
        "entry": [
          {
            "item": {
              "reference": "MedicationStatement/mii-exa-test-data-patient-1-medstatement-1"
            }
          }
        ],
        "status": "current",
        "mode": "snapshot",
        "title": "Aufnahmemedikation",
        "subject": {
          "reference": "Patient/mii-exa-test-data-patient-1"
        }
      }
    },
    {
      "request": {
        "method": "POST",
        "url": "List"
      },
      "fullUrl": "https://www.medizininformatik-initiative.de/List/mii-exa-test-data-patient-1-list-stat-aufenthalt",
      "resource": {
        "resourceType": "List",
        "id": "mii-exa-test-data-patient-1-list-stat-aufenthalt",
        "meta": {
          "security": [
            {
              "code": "HTEST",
              "system": "http://terminology.hl7.org/CodeSystem/v3-ActReason",
              "display": "test health data"
            }
          ],
          "profile": [
            "https://www.medizininformatik-initiative.de/fhir/core/modul-medikation/StructureDefinition/medikationsliste"
          ]
        },
        "code": {
          "coding": [
            {
              "system": "http://terminology.hl7.org/CodeSystem/list-example-use-codes",
              "code": "medications"
            },
            {
              "system": "http://ihe-d.de/CodeSystems/FallkontextBeiDokumentenerstellung",
              "code": "E200"
            }
          ]
        },
        "entry": [
          {
            "item": {
              "reference": "MedicationStatement/mii-exa-test-data-patient-1-medstatement-1"
            }
          },
          {
            "item": {
              "reference": "MedicationStatement/mii-exa-test-data-patient-1-medstatement-2"
            }
          }
        ],
        "status": "current",
        "mode": "working",
        "title": "Medikationsliste während stationärem Aufenthalt",
        "subject": {
          "reference": "Patient/mii-exa-test-data-patient-1"
        }
      }
    },
    {
      "request": {
        "method": "POST",
        "url": "Medication"
      },
      "fullUrl": "https://www.medizininformatik-initiative.de/Medication/mii-exa-test-data-medication-ass-100",
      "resource": {
        "resourceType": "Medication",
        "id": "mii-exa-test-data-medication-ass-100",
        "meta": {
          "security": [
            {
              "code": "HTEST",
              "system": "http://terminology.hl7.org/CodeSystem/v3-ActReason",
              "display": "test health data"
            }
          ],
          "profile": [
            "https://www.medizininformatik-initiative.de/fhir/core/modul-medikation/StructureDefinition/Medication"
          ]
        },
        "code": {
          "coding": [
            {
              "system": "http://fhir.de/CodeSystem/ifa/pzn",
              "code": "06312077",
              "display": "ASS 100 - 1a Pharma TAH Tabletten"
            },
            {
              "system": "http://fhir.de/CodeSystem/bfarm/atc",
              "code": "B01AC06",
              "version": "2023",
              "display": "Acetylsalicylsäure"
            }
          ]
        },
        "form": {
          "coding": [
            {
              "system": "http://standardterms.edqm.eu",
              "code": "10219000",
              "display": "Tablet"
            }
          ]
        },
        "ingredient": [
          {
            "itemCodeableConcept": {
              "coding": [
                {
                  "system": "http://fhir.de/CodeSystem/ask",
                  "code": "00002"
                }
              ]
            },
            "strength": {
              "numerator": {
                "value": 100,
                "code": "mg",
                "system": "http://unitsofmeasure.org",
                "unit": "milligram"
              },
              "denominator": {
                "value": 1,
                "code": "10219000",
                "system": "http://standardterms.edqm.eu",
                "unit": "Tablet"
              }
            }
          }
        ]
      }
    },
    {
      "request": {
        "method": "POST",
        "url": "Medication"
      },
      "fullUrl": "https://www.medizininformatik-initiative.de/Medication/mii-exa-test-data-medication-propofol",
      "resource": {
        "resourceType": "Medication",
        "id": "mii-exa-test-data-medication-propofol",
        "meta": {
          "security": [
            {
              "code": "HTEST",
              "system": "http://terminology.hl7.org/CodeSystem/v3-ActReason",
              "display": "test health data"
            }
          ],
          "profile": [
            "https://www.medizininformatik-initiative.de/fhir/core/modul-medikation/StructureDefinition/Medication"
          ]
        },
        "code": {
          "coding": [
            {
              "system": "http://fhir.de/CodeSystem/bfarm/atc",
              "code": "N01AX10",
              "version": "2023",
              "display": "Propofol"
            }
          ]
        },
        "form": {
          "coding": [
            {
              "system": "http://standardterms.edqm.eu",
              "code": "50021000",
              "display": "Emulsion for injection/infusion"
            }
          ]
        },
        "ingredient": [
          {
            "itemCodeableConcept": {
              "coding": [
                {
                  "system": "http://fhir.de/CodeSystem/ask",
                  "code": "22898",
                  "display": "Propofol"
                },
                {
                  "system": "http://fdasis.nlm.nih.gov",
                  "code": "YI7VU623SF"
                },
                {
                  "system": "http://terminology.hl7.org/CodeSystem/CAS",
                  "code": "2078-54-8"
                },
                {
                  "system": "http://snomed.info/sct",
                  "code": "387423006",
                  "version": "http://snomed.info/sct/900000000000207008/version/20230731",
                  "display": "Propofol (substance)"
                }
              ]
            }
          }
        ]
      }
    },
    {
      "request": {
        "method": "POST",
        "url": "Medication"
      },
      "fullUrl": "https://www.medizininformatik-initiative.de/Medication/mii-exa-test-data-medication-dalbavancin",
      "resource": {
        "resourceType": "Medication",
        "id": "mii-exa-test-data-medication-dalbavancin",
        "meta": {
          "security": [
            {
              "code": "HTEST",
              "system": "http://terminology.hl7.org/CodeSystem/v3-ActReason",
              "display": "test health data"
            }
          ],
          "profile": [
            "https://www.medizininformatik-initiative.de/fhir/core/modul-medikation/StructureDefinition/Medication"
          ]
        },
        "code": {
          "coding": [
            {
              "system": "http://fhir.de/CodeSystem/ifa/pzn",
              "code": "15205222",
              "display": "XYDALBA"
            },
            {
              "system": "http://fhir.de/CodeSystem/bfarm/atc",
              "code": "J01XA04",
              "version": "2023",
              "display": "Dalbavancin"
            }
          ]
        },
        "form": {
          "coding": [
            {
              "system": "http://standardterms.edqm.eu",
              "code": "50043000",
              "display": "Powder for concentrate for solution for infusion"
            }
          ]
        },
        "ingredient": [
          {
            "itemCodeableConcept": {
              "coding": [
                {
                  "system": "http://fhir.de/CodeSystem/ask",
                  "code": "33395",
                  "display": "Dalbavancin"
                },
                {
                  "system": "http://fdasis.nlm.nih.gov",
                  "code": "808UI9MS5K"
                },
                {
                  "system": "http://terminology.hl7.org/CodeSystem/CAS",
                  "code": "171500-79-1"
                },
                {
                  "system": "http://snomed.info/sct",
                  "code": "703917001",
                  "version": "http://snomed.info/sct/900000000000207008/version/20230731",
                  "display": "Dalbavancin (substance)"
                }
              ]
            }
          }
        ]
      }
    },
    {
      "request": {
        "method": "POST",
        "url": "MedicationAdministration"
      },
      "fullUrl": "https://www.medizininformatik-initiative.de/MedicationAdministration/mii-exa-test-data-patient-1-medadmin-1",
      "resource": {
        "resourceType": "MedicationAdministration",
        "id": "mii-exa-test-data-patient-1-medadmin-1",
        "meta": {
          "security": [
            {
              "code": "HTEST",
              "system": "http://terminology.hl7.org/CodeSystem/v3-ActReason",
              "display": "test health data"
            }
          ],
          "profile": [
            "https://www.medizininformatik-initiative.de/fhir/core/modul-medikation/StructureDefinition/MedicationAdministration"
          ]
        },
        "identifier": [
          {
            "system": "https://www.charite.de/fhir/sid/MedicationAdministrations",
            "value": "MA_0000001"
          }
        ],
        "partOf": [
          {
            "reference": "Procedure/mii-exa-test-data-patient-1-prozedur-2"
          }
        ],
        "effectivePeriod": {
          "start": "2024-02-16T10:20:00.000+01:00",
          "end": "2024-02-16T10:50:00.000+01:00"
        },
        "note": [
          {
            "text": "wie angeordnet verabreicht"
          }
        ],
        "dosage": {
          "site": {
            "coding": [
              {
                "system": "http://snomed.info/sct",
                "code": "789218009",
                "version": "http://snomed.info/sct/900000000000207008/version/20230731",
                "display": "Structure of dorsum of left hand (body structure)"
              }
            ]
          },
          "route": {
            "coding": [
              {
                "system": "http://standardterms.edqm.eu",
                "code": "20045000",
                "display": "Intravenous use"
              },
              {
                "system": "http://snomed.info/sct",
                "code": "47625008",
                "version": "http://snomed.info/sct/900000000000207008/version/20230731",
                "display": "Intravenous route (qualifier value)"
              }
            ]
          },
          "rateRatio": {
            "numerator": {
              "system": "http://unitsofmeasure.org",
              "value": 1500,
              "code": "mg",
              "unit": "mg"
            },
            "denominator": {
              "system": "http://unitsofmeasure.org",
              "value": 30,
              "code": "min",
              "unit": "Minuten"
            }
          },
          "dose": {
            "system": "http://unitsofmeasure.org",
            "value": 1500,
            "code": "mg",
            "unit": "mg"
          },
          "text": "Dalbavancin 1500 mg als 30-minütige Infusion"
        },
        "status": "completed",
        "category": {
          "coding": [
            {
              "code": "inpatient",
              "system": "http://terminology.hl7.org/CodeSystem/medication-admin-category",
              "display": "Inpatient"
            }
          ]
        },
        "medicationReference": {
          "reference": "Medication/mii-exa-test-data-medication-dalbavancin"
        },
        "subject": {
          "reference": "Patient/mii-exa-test-data-patient-1"
        },
        "context": {
          "reference": "Encounter/mii-exa-test-data-patient-1-encounter-1"
        },
        "request": {
          "reference": "MedicationRequest/mii-exa-test-data-patient-1-medrequest-1"
        }
      }
    },
    {
      "request": {
        "method": "POST",
        "url": "MedicationAdministration"
      },
      "fullUrl": "https://www.medizininformatik-initiative.de/MedicationAdministration/mii-exa-test-data-patient-1-medadmin-2",
      "resource": {
        "resourceType": "MedicationAdministration",
        "id": "mii-exa-test-data-patient-1-medadmin-2",
        "meta": {
          "security": [
            {
              "code": "HTEST",
              "system": "http://terminology.hl7.org/CodeSystem/v3-ActReason",
              "display": "test health data"
            }
          ],
          "profile": [
            "https://www.medizininformatik-initiative.de/fhir/core/modul-medikation/StructureDefinition/MedicationAdministration"
          ]
        },
        "identifier": [
          {
            "system": "https://www.charite.de/fhir/sid/MedicationAdministrations",
            "value": "MA_0000002"
          }
        ],
        "partOf": [
          {
            "reference": "Procedure/mii-exa-test-data-patient-1-prozedur-2"
          }
        ],
        "effectivePeriod": {
          "start": "2024-02-16T10:20:00.000+01:00"
        },
        "note": [
          {
            "text": "abgebrochen fehlerhafte Eingabe"
          }
        ],
        "dosage": {
          "site": {
            "coding": [
              {
                "system": "http://snomed.info/sct",
                "code": "789218009",
                "version": "http://snomed.info/sct/900000000000207008/version/20230731",
                "display": "Structure of dorsum of left hand (body structure)"
              }
            ]
          },
          "route": {
            "coding": [
              {
                "system": "http://standardterms.edqm.eu",
                "code": "20045000",
                "display": "Intravenous use"
              },
              {
                "system": "http://snomed.info/sct",
                "code": "47625008",
                "version": "http://snomed.info/sct/900000000000207008/version/20230731",
                "display": "Intravenous route (qualifier value)"
              }
            ]
          },
          "dose": {
            "system": "http://unitsofmeasure.org",
            "value": 1500,
            "code": "mg",
            "unit": "mg"
          },
          "rateQuantity": {
            "system": "http://unitsofmeasure.org",
            "value": 1500,
            "code": "mg/h",
            "unit": "mg/Stunde"
          },
          "text": "Dalbavancin 1500 mg als 30-minütige Infusion"
        },
        "status": "entered-in-error",
        "category": {
          "coding": [
            {
              "code": "inpatient",
              "system": "http://terminology.hl7.org/CodeSystem/medication-admin-category",
              "display": "Inpatient"
            }
          ]
        },
        "medicationReference": {
          "reference": "Medication/mii-exa-test-data-medication-dalbavancin"
        },
        "subject": {
          "reference": "Patient/mii-exa-test-data-patient-1"
        },
        "context": {
          "reference": "Encounter/mii-exa-test-data-patient-1-encounter-1"
        },
        "request": {
          "reference": "MedicationRequest/mii-exa-test-data-patient-1-medrequest-1"
        }
      }
    },
    {
      "request": {
        "method": "POST",
        "url": "MedicationRequest"
      },
      "fullUrl": "https://www.medizininformatik-initiative.de/MedicationRequest/mii-exa-test-data-patient-1-medrequest-1",
      "resource": {
        "resourceType": "MedicationRequest",
        "id": "mii-exa-test-data-patient-1-medrequest-1",
        "meta": {
          "security": [
            {
              "code": "HTEST",
              "system": "http://terminology.hl7.org/CodeSystem/v3-ActReason",
              "display": "test health data"
            }
          ],
          "profile": [
            "https://www.medizininformatik-initiative.de/fhir/core/modul-medikation/StructureDefinition/MedicationRequest"
          ]
        },
        "identifier": [
          {
            "system": "https://www.charite.de/fhir/sid/MedicationOrders",
            "value": "MO_0000001"
          }
        ],
        "dosageInstruction": [
          {
            "timing": {
              "event": [
                "2024-02-16"
              ]
            },
            "doseAndRate": [
              {
                "rateRatio": {
                  "numerator": {
                    "system": "http://unitsofmeasure.org",
                    "value": 1500,
                    "code": "mg",
                    "unit": "mg"
                  },
                  "denominator": {
                    "system": "http://unitsofmeasure.org",
                    "value": 30,
                    "code": "min",
                    "unit": "Minuten"
                  }
                },
                "doseQuantity": {
                  "value": 1500,
                  "code": "mg",
                  "system": "http://unitsofmeasure.org",
                  "unit": "mg"
                }
              }
            ],
            "maxDosePerAdministration": {
              "system": "http://unitsofmeasure.org",
              "value": 1500,
              "code": "mg",
              "unit": "mg"
            },
            "text": "Dalbavancin 1500 mg als 30-minütige Infusion",
            "route": {
              "coding": [
                {
                  "code": "20045000",
                  "system": "http://standardterms.edqm.eu",
                  "display": "Intravenous use"
                }
              ]
            }
          }
        ],
        "substitution": {
          "allowedBoolean": false
        },
        "status": "active",
        "intent": "order",
        "medicationReference": {
          "reference": "Medication/mii-exa-test-data-medication-dalbavancin"
        },
        "subject": {
          "reference": "Patient/mii-exa-test-data-patient-1"
        },
        "encounter": {
          "reference": "Encounter/mii-exa-test-data-patient-1-encounter-1"
        },
        "authoredOn": "2024-02-16T08:37:00+01:00"
      }
    },
    {
      "request": {
        "method": "POST",
        "url": "MedicationRequest"
      },
      "fullUrl": "https://www.medizininformatik-initiative.de/MedicationRequest/mii-exa-test-data-patient-1-medrequest-2",
      "resource": {
        "resourceType": "MedicationRequest",
        "id": "mii-exa-test-data-patient-1-medrequest-2",
        "meta": {
          "security": [
            {
              "code": "HTEST",
              "system": "http://terminology.hl7.org/CodeSystem/v3-ActReason",
              "display": "test health data"
            }
          ],
          "profile": [
            "https://www.medizininformatik-initiative.de/fhir/core/modul-medikation/StructureDefinition/MedicationRequest"
          ]
        },
        "identifier": [
          {
            "system": "https://www.charite.de/fhir/sid/MedicationOrders",
            "value": "MO_0000002"
          }
        ],
        "dosageInstruction": [
          {
            "timing": {
              "event": [
                "2024-02-16"
              ]
            },
            "doseAndRate": [
              {
                "rateRange": {
                  "low": {
                    "system": "http://unitsofmeasure.org",
                    "value": 60,
                    "code": "mL/h"
                  },
                  "high": {
                    "system": "http://unitsofmeasure.org",
                    "value": 120,
                    "code": "mL/h"
                  }
                },
                "doseQuantity": {
                  "value": 1500,
                  "code": "mg",
                  "system": "http://unitsofmeasure.org",
                  "unit": "mg"
                }
              }
            ],
            "text": "Dalbavancin 1500 mg als 30-minütige Infusion",
            "route": {
              "coding": [
                {
                  "code": "20045000",
                  "system": "http://standardterms.edqm.eu",
                  "display": "Intravenous use"
                }
              ]
            }
          }
        ],
        "status": "active",
        "intent": "option",
        "medicationReference": {
          "reference": "Medication/mii-exa-test-data-medication-dalbavancin"
        },
        "subject": {
          "reference": "Patient/mii-exa-test-data-patient-1"
        },
        "encounter": {
          "reference": "Encounter/mii-exa-test-data-patient-1-encounter-1"
        },
        "authoredOn": "2024-02-16T08:37:00+01:00",
        "priorPrescription": {
          "reference": "MedicationRequest/mii-exa-test-data-patient-1-medrequest-1"
        }
      }
    },
    {
      "request": {
        "method": "POST",
        "url": "MedicationRequest"
      },
      "fullUrl": "https://www.medizininformatik-initiative.de/MedicationRequest/mii-exa-test-data-patient-1-medrequest-3",
      "resource": {
        "resourceType": "MedicationRequest",
        "id": "mii-exa-test-data-patient-1-medrequest-3",
        "meta": {
          "security": [
            {
              "code": "HTEST",
              "system": "http://terminology.hl7.org/CodeSystem/v3-ActReason",
              "display": "test health data"
            }
          ],
          "profile": [
            "https://www.medizininformatik-initiative.de/fhir/core/modul-medikation/StructureDefinition/MedicationRequest"
          ]
        },
        "identifier": [
          {
            "system": "https://www.charite.de/fhir/sid/MedicationOrders",
            "value": "MO_0000003"
          }
        ],
        "dosageInstruction": [
          {
            "timing": {
              "event": [
                "2024-02-20T10:00:00+01:00"
              ]
            },
            "doseAndRate": [
              {
                "rateQuantity": {
                  "system": "http://unitsofmeasure.org",
                  "value": 5,
                  "code": "mg/min"
                }
              }
            ],
            "text": "Propofol 6.5 mg/min IV via Perfusor",
            "route": {
              "coding": [
                {
                  "code": "20045000",
                  "system": "http://standardterms.edqm.eu",
                  "display": "Intravenous use"
                }
              ]
            },
            "method": {
              "coding": [
                {
                  "code": "129331004",
                  "system": "http://snomed.info/sct",
                  "version": "http://snomed.info/sct/900000000000207008/version/20230731",
                  "display": "Perfusion - action (qualifier value)"
                }
              ]
            }
          }
        ],
        "status": "cancelled",
        "intent": "order",
        "medicationReference": {
          "reference": "Medication/mii-exa-test-data-medication-propofol"
        },
        "subject": {
          "reference": "Patient/mii-exa-test-data-patient-1"
        },
        "encounter": {
          "reference": "Encounter/mii-exa-test-data-patient-1-encounter-2"
        },
        "authoredOn": "2024-02-20T09:55:00+01:00"
      }
    },
    {
      "request": {
        "method": "POST",
        "url": "MedicationRequest"
      },
      "fullUrl": "https://www.medizininformatik-initiative.de/MedicationRequest/mii-exa-test-data-patient-1-medrequest-4",
      "resource": {
        "resourceType": "MedicationRequest",
        "id": "mii-exa-test-data-patient-1-medrequest-4",
        "meta": {
          "security": [
            {
              "code": "HTEST",
              "system": "http://terminology.hl7.org/CodeSystem/v3-ActReason",
              "display": "test health data"
            }
          ],
          "profile": [
            "https://www.medizininformatik-initiative.de/fhir/core/modul-medikation/StructureDefinition/MedicationRequest"
          ]
        },
        "identifier": [
          {
            "system": "https://www.charite.de/fhir/sid/MedicationOrders",
            "value": "MO_0000004"
          }
        ],
        "dosageInstruction": [
          {
            "timing": {
              "event": [
                "2024-02-20T10:00:00+01:00"
              ]
            },
            "doseAndRate": [
              {
                "rateRatio": {
                  "numerator": {
                    "system": "http://unitsofmeasure.org",
                    "value": 6.5,
                    "code": "mg",
                    "unit": "mg"
                  },
                  "denominator": {
                    "system": "http://unitsofmeasure.org",
                    "value": 1,
                    "code": "min",
                    "unit": "Minuten"
                  }
                }
              }
            ],
            "text": "Propofol 6.5 mg/min IV via Perfusor",
            "route": {
              "coding": [
                {
                  "code": "20045000",
                  "system": "http://standardterms.edqm.eu",
                  "display": "Intravenous use"
                }
              ]
            },
            "method": {
              "coding": [
                {
                  "code": "129331004",
                  "system": "http://snomed.info/sct",
                  "version": "http://snomed.info/sct/900000000000207008/version/20230731",
                  "display": "Perfusion - action (qualifier value)"
                }
              ]
            }
          }
        ],
        "status": "active",
        "intent": "order",
        "medicationReference": {
          "reference": "Medication/mii-exa-test-data-medication-propofol"
        },
        "subject": {
          "reference": "Patient/mii-exa-test-data-patient-1"
        },
        "encounter": {
          "reference": "Encounter/mii-exa-test-data-patient-1-encounter-2"
        },
        "authoredOn": "2024-02-20T10:00:00+01:00",
        "priorPrescription": {
          "reference": "MedicationRequest/mii-exa-test-data-patient-1-medrequest-2"
        }
      }
    },
    {
      "request": {
        "method": "POST",
        "url": "MedicationStatement"
      },
      "fullUrl": "https://www.medizininformatik-initiative.de/MedicationStatement/mii-exa-test-data-patient-1-medstatement-1",
      "resource": {
        "resourceType": "MedicationStatement",
        "id": "mii-exa-test-data-patient-1-medstatement-1",
        "meta": {
          "security": [
            {
              "code": "HTEST",
              "system": "http://terminology.hl7.org/CodeSystem/v3-ActReason",
              "display": "test health data"
            }
          ],
          "profile": [
            "https://www.medizininformatik-initiative.de/fhir/core/modul-medikation/StructureDefinition/MedicationStatement"
          ]
        },
        "identifier": [
          {
            "system": "https://www.charite.de/fhir/sid/MedicationStatements",
            "value": "MS_0000001"
          }
        ],
        "category": {
          "coding": [
            {
              "system": "http://terminology.hl7.org/CodeSystem/medication-statement-category",
              "code": "outpatient"
            },
            {
              "system": "http://ihe-d.de/CodeSystems/FallkontextBeiDokumentenerstellung",
              "code": "E210",
              "display": "stationäre Aufnahme"
            }
          ]
        },
        "effectivePeriod": {
          "start": "2020-08-30"
        },
        "reasonCode": [
          {
            "coding": [
              {
                "code": "787930001",
                "system": "http://snomed.info/sct",
                "version": "http://snomed.info/sct/900000000000207008/version/20230731",
                "display": "Direct thrombin inhibitor prophylaxis indicated (situation)"
              }
            ]
          }
        ],
        "dosage": [
          {
            "timing": {
              "repeat": {
                "when": [
                  "CD"
                ],
                "frequency": 1,
                "period": 1,
                "periodUnit": "d"
              }
            },
            "route": {
              "coding": [
                {
                  "code": "20053000",
                  "system": "http://standardterms.edqm.eu",
                  "display": "Oral use"
                }
              ]
            },
            "text": "ASS 100 mg 1x täglich mittags eine Tablette oral"
          }
        ],
        "status": "active",
        "medicationReference": {
          "reference": "Medication/mii-exa-test-data-medication-ass-100"
        },
        "subject": {
          "reference": "Patient/mii-exa-test-data-patient-1"
        },
        "context": {
          "reference": "Encounter/mii-exa-test-data-patient-1-encounter-1"
        },
        "dateAsserted": "2024-02-14",
        "informationSource": {
          "reference": "Patient/mii-exa-test-data-patient-1"
        }
      }
    },
    {
      "request": {
        "method": "POST",
        "url": "MedicationStatement"
      },
      "fullUrl": "https://www.medizininformatik-initiative.de/MedicationStatement/mii-exa-test-data-patient-1-medstatement-2",
      "resource": {
        "resourceType": "MedicationStatement",
        "id": "mii-exa-test-data-patient-1-medstatement-2",
        "meta": {
          "security": [
            {
              "code": "HTEST",
              "system": "http://terminology.hl7.org/CodeSystem/v3-ActReason",
              "display": "test health data"
            }
          ],
          "profile": [
            "https://www.medizininformatik-initiative.de/fhir/core/modul-medikation/StructureDefinition/MedicationStatement"
          ]
        },
        "identifier": [
          {
            "system": "https://www.charite.de/fhir/sid/MedicationStatements",
            "value": "MS_0000002"
          }
        ],
        "basedOn": [
          {
            "reference": "MedicationRequest/mii-exa-test-data-patient-1-medrequest-1"
          }
        ],
        "partOf": [
          {
            "reference": "Procedure/mii-exa-test-data-patient-1-prozedur-2"
          }
        ],
        "category": {
          "coding": [
            {
              "system": "http://terminology.hl7.org/CodeSystem/medication-statement-category",
              "code": "inpatient"
            },
            {
              "system": "http://ihe-d.de/CodeSystems/FallkontextBeiDokumentenerstellung",
              "code": "E200",
              "display": "stationärer Aufenthalt"
            }
          ]
        },
        "effectivePeriod": {
          "start": "2024-02-16T10:20:00.000+01:00",
          "end": "2024-02-16T10:50:00.000+01:00"
        },
        "reasonReference": [
          {
            "reference": "Condition/mii-exa-test-data-patient-1-diagnose-1"
          }
        ],
        "dosage": [
          {
            "site": {
              "coding": [
                {
                  "system": "http://snomed.info/sct",
                  "code": "789218009",
                  "version": "http://snomed.info/sct/900000000000207008/version/20230731",
                  "display": "Structure of dorsum of left hand (body structure)"
                }
              ]
            },
            "route": {
              "coding": [
                {
                  "system": "http://standardterms.edqm.eu",
                  "code": "20045000",
                  "display": "Intravenous use"
                },
                {
                  "system": "http://snomed.info/sct",
                  "code": "47625008",
                  "version": "http://snomed.info/sct/900000000000207008/version/20230731",
                  "display": "Intravenous route (qualifier value)"
                }
              ]
            },
            "doseAndRate": [
              {
                "rateRatio": {
                  "numerator": {
                    "system": "http://unitsofmeasure.org",
                    "value": 1500,
                    "code": "mg",
                    "unit": "mg"
                  },
                  "denominator": {
                    "system": "http://unitsofmeasure.org",
                    "value": 30,
                    "code": "min",
                    "unit": "Minuten"
                  }
                },
                "doseQuantity": {
                  "system": "http://unitsofmeasure.org",
                  "value": 1500,
                  "code": "mg",
                  "unit": "mg"
                }
              }
            ],
            "text": "Dalbavancin 1500 mg als 30-minütige Infusion"
          }
        ],
        "status": "completed",
        "medicationReference": {
          "reference": "Medication/mii-exa-test-data-medication-dalbavancin"
        },
        "subject": {
          "reference": "Patient/mii-exa-test-data-patient-1"
        },
        "context": {
          "reference": "Encounter/mii-exa-test-data-patient-1-encounter-1"
        },
        "dateAsserted": "2024-02-16"
      }
    },
    {
      "request": {
        "method": "POST",
        "url": "MedicationStatement"
      },
      "fullUrl": "https://www.medizininformatik-initiative.de/MedicationStatement/mii-exa-test-data-patient-1-medstatement-3",
      "resource": {
        "resourceType": "MedicationStatement",
        "id": "mii-exa-test-data-patient-1-medstatement-3",
        "meta": {
          "security": [
            {
              "code": "HTEST",
              "system": "http://terminology.hl7.org/CodeSystem/v3-ActReason",
              "display": "test health data"
            }
          ],
          "profile": [
            "https://www.medizininformatik-initiative.de/fhir/core/modul-medikation/StructureDefinition/MedicationStatement"
          ]
        },
        "identifier": [
          {
            "system": "https://www.charite.de/fhir/sid/MedicationStatements",
            "value": "MS_0000003"
          }
        ],
        "basedOn": [
          {
            "reference": "MedicationRequest/mii-exa-test-data-patient-1-medrequest-3"
          }
        ],
        "category": {
          "coding": [
            {
              "system": "http://terminology.hl7.org/CodeSystem/medication-statement-category",
              "code": "inpatient"
            },
            {
              "system": "http://ihe-d.de/CodeSystems/FallkontextBeiDokumentenerstellung",
              "code": "E200",
              "display": "stationärer Aufenthalt"
            }
          ]
        },
        "effectivePeriod": {
          "start": "2024-02-20T09:55:00+01:00"
        },
        "dosage": [
          {
            "route": {
              "coding": [
                {
                  "system": "http://standardterms.edqm.eu",
                  "code": "20045000",
                  "display": "Intravenous use"
                },
                {
                  "system": "http://snomed.info/sct",
                  "code": "47625008",
                  "version": "http://snomed.info/sct/900000000000207008/version/20230731",
                  "display": "Intravenous route (qualifier value)"
                }
              ]
            },
            "doseAndRate": [
              {
                "rateQuantity": {
                  "system": "http://unitsofmeasure.org",
                  "value": 5,
                  "code": "mg/min"
                }
              }
            ]
          }
        ],
        "status": "entered-in-error",
        "medicationReference": {
          "reference": "Medication/mii-exa-test-data-medication-propofol"
        },
        "subject": {
          "reference": "Patient/mii-exa-test-data-patient-1"
        },
        "context": {
          "reference": "Encounter/mii-exa-test-data-patient-1-encounter-1"
        },
        "dateAsserted": "2024-02-20"
      }
    },
    {
      "request": {
        "method": "POST",
        "url": "Specimen"
      },
      "fullUrl": "https://www.medizininformatik-initiative.de/Specimen/mii-exa-test-data-patient-1-specimen-1",
      "resource": {
        "resourceType": "Specimen",
        "id": "mii-exa-test-data-patient-1-specimen-1",
        "meta": {
          "security": [
            {
              "code": "HTEST",
              "system": "http://terminology.hl7.org/CodeSystem/v3-ActReason",
              "display": "test health data"
            }
          ],
          "profile": [
            "https://www.medizininformatik-initiative.de/fhir/ext/modul-biobank/StructureDefinition/Specimen"
          ]
        },
        "extension": [
          {
            "url": "https://www.medizininformatik-initiative.de/fhir/ext/modul-biobank/StructureDefinition/VerwaltendeOrganisation",
            "valueReference": {
              "reference": "Organization/mii-exa-test-data-organization-biobank-charite"
            }
          },
          {
            "url": "https://www.medizininformatik-initiative.de/fhir/ext/modul-biobank/StructureDefinition/Diagnose",
            "valueReference": {
              "reference": "Condition/mii-exa-test-data-patient-1-diagnose-1"
            }
          }
        ],
        "identifier": [
          {
            "system": "https://www.charite.de/fhir/sid/Bioproben",
            "value": "BP_000001"
          }
        ],
        "type": {
          "coding": [
            {
              "code": "122555007",
              "system": "http://snomed.info/sct",
              "version": "http://snomed.info/sct/900000000000207008/version/20230731",
              "display": "Venous blood specimen (specimen)"
            }
          ]
        },
        "collection": {
          "bodySite": {
            "coding": [
              {
                "code": "789218009",
                "system": "http://snomed.info/sct",
                "version": "http://snomed.info/sct/900000000000207008/version/20230731",
                "display": "Structure of dorsum of left hand (body structure)"
              }
            ]
          },
          "collectedDateTime": "2024-02-15T11:05:00+01:00",
          "fastingStatusCodeableConcept": {
            "coding": [
              {
                "code": "F",
                "system": "http://terminology.hl7.org/CodeSystem/v2-0916",
                "display": "Patient was fasting prior to the procedure."
              }
            ]
          },
          "method": {
            "coding": [
              {
                "code": "129300006",
                "system": "http://snomed.info/sct",
                "version": "http://snomed.info/sct/900000000000207008/version/20230731"
              }
            ]
          }
        },
        "container": [
          {
            "type": {
              "coding": [
                {
                  "code": "83059008",
                  "system": "http://snomed.info/sct",
                  "version": "http://snomed.info/sct/900000000000207008/version/20230731",
                  "display": "Tube, device (physical object)"
                }
              ]
            },
            "capacity": {
              "value": 10,
              "code": "ml",
              "system": "http://unitsofmeasure.org"
            },
            "specimenQuantity": {
              "value": 10,
              "code": "ml",
              "system": "http://unitsofmeasure.org"
            },
            "additiveReference": {
              "reference": "Substance/mii-exa-test-data-patient-1-substance-1"
            }
          }
        ],
        "status": "available",
        "subject": {
          "reference": "Patient/mii-exa-test-data-patient-1"
        }
      }
    },
    {
      "request": {
        "method": "POST",
        "url": "Substance"
      },
      "fullUrl": "https://www.medizininformatik-initiative.de/Substance/mii-exa-test-data-patient-1-substance-1",
      "resource": {
        "resourceType": "Substance",
        "id": "mii-exa-test-data-patient-1-substance-1",
        "meta": {
          "security": [
            {
              "code": "HTEST",
              "system": "http://terminology.hl7.org/CodeSystem/v3-ActReason",
              "display": "test health data"
            }
          ],
          "profile": [
            "https://www.medizininformatik-initiative.de/fhir/ext/modul-biobank/StructureDefinition/Substance"
          ]
        },
        "category": [
          {
            "coding": [
              {
                "code": "chemical",
                "system": "http://terminology.hl7.org/CodeSystem/substance-category",
                "display": "Chemical"
              }
            ]
          }
        ],
        "code": {
          "coding": [
            {
              "code": "69519002",
              "system": "http://snomed.info/sct",
              "version": "http://snomed.info/sct/900000000000207008/version/20230731",
              "display": "Edetic acid (substance)"
            }
          ]
        }
      }
    },
    {
      "request": {
        "method": "POST",
        "url": "Device"
      },
      "fullUrl": "https://www.medizininformatik-initiative.de/Device/mii-exa-test-data-device-roche-cobas",
      "resource": {
        "resourceType": "Device",
        "id": "mii-exa-test-data-device-roche-cobas",
        "meta": {
          "security": [
            {
              "code": "HTEST",
              "system": "http://terminology.hl7.org/CodeSystem/v3-ActReason",
              "display": "test health data"
            }
          ]
        },
        "identifier": [
          {
            "system": "https://www.charite.de/fhir/sid/Laboratory-device-identifier",
            "value": "RocheCobas"
          }
        ],
        "deviceName": [
          {
            "name": "cobas",
            "type": "manufacturer-name"
          }
        ],
        "status": "active",
        "manufacturer": "Roche"
      }
    },
    {
      "request": {
        "method": "POST",
        "url": "Device"
      },
      "fullUrl": "https://www.medizininformatik-initiative.de/Device/mii-exa-test-data-device-roche-cobas-c303",
      "resource": {
        "resourceType": "Device",
        "id": "mii-exa-test-data-device-roche-cobas-c303",
        "meta": {
          "security": [
            {
              "code": "HTEST",
              "system": "http://terminology.hl7.org/CodeSystem/v3-ActReason",
              "display": "test health data"
            }
          ]
        },
        "identifier": [
          {
            "system": "https://www.charite.de/fhir/sid/Laboratory-device-identifier",
            "value": "RocheCobasC303"
          }
        ],
        "deviceName": [
          {
            "name": "cobas",
            "type": "manufacturer-name"
          }
        ],
        "property": [
          {
            "type": {
              "coding": [
                {
                  "code": "69684",
                  "system": "urn:iso:std:iso:11073:10101"
                }
              ]
            }
          },
          {
            "type": {
              "coding": [
                {
                  "code": "69652",
                  "system": "urn:iso:std:iso:11073:10101"
                }
              ]
            }
          },
          {
            "type": {
              "coding": [
                {
                  "code": "69844",
                  "system": "urn:iso:std:iso:11073:10101"
                }
              ]
            }
          }
        ],
        "status": "active",
        "manufacturer": "Roche",
        "modelNumber": "c 303",
        "parent": {
          "reference": "Device/mii-exa-test-data-device-roche-cobas"
        }
      }
    },
    {
      "request": {
        "method": "POST",
        "url": "Device"
      },
      "fullUrl": "https://www.medizininformatik-initiative.de/Device/mii-exa-test-data-device-roche-cobas-e402",
      "resource": {
        "resourceType": "Device",
        "id": "mii-exa-test-data-device-roche-cobas-e402",
        "meta": {
          "security": [
            {
              "code": "HTEST",
              "system": "http://terminology.hl7.org/CodeSystem/v3-ActReason",
              "display": "test health data"
            }
          ]
        },
        "identifier": [
          {
            "system": "https://www.charite.de/fhir/sid/Laboratory-device-identifier",
            "value": "RocheCobasE402"
          }
        ],
        "deviceName": [
          {
            "name": "cobas",
            "type": "manufacturer-name"
          }
        ],
        "property": [
          {
            "type": {
              "coding": [
                {
                  "code": "160220",
                  "system": "urn:iso:std:iso:11073:10101"
                }
              ]
            }
          }
        ],
        "status": "active",
        "manufacturer": "Roche",
        "modelNumber": "e 402",
        "parent": {
          "reference": "Device/mii-exa-test-data-device-roche-cobas"
        }
      }
    },
    {
      "request": {
        "method": "POST",
        "url": "DeviceMetric"
      },
      "fullUrl": "https://www.medizininformatik-initiative.de/DeviceMetric/mii-exa-test-data-devicemetric-roche-cobas-c303-1",
      "resource": {
        "resourceType": "DeviceMetric",
        "id": "mii-exa-test-data-devicemetric-roche-cobas-c303-1",
        "meta": {
          "security": [
            {
              "code": "HTEST",
              "system": "http://terminology.hl7.org/CodeSystem/v3-ActReason",
              "display": "test health data"
            }
          ]
        },
        "identifier": [
          {
            "system": "https://www.charite.de/fhir/sid/Laboratory-device-identifier",
            "value": "RocheCobasC303-160192"
          }
        ],
        "type": {
          "coding": [
            {
              "code": "160192",
              "system": "urn:iso:std:iso:11073:10101"
            }
          ]
        },
        "source": {
          "reference": "Device/mii-exa-test-data-device-roche-cobas-c303"
        },
        "category": "measurement"
      }
    },
    {
      "request": {
        "method": "POST",
        "url": "Organization"
      },
      "fullUrl": "https://www.medizininformatik-initiative.de/Organization/mii-exa-test-data-organization-biobank-charite",
      "resource": {
        "resourceType": "Organization",
        "id": "mii-exa-test-data-organization-biobank-charite",
        "meta": {
          "security": [
            {
              "code": "HTEST",
              "system": "http://terminology.hl7.org/CodeSystem/v3-ActReason",
              "display": "test health data"
            }
          ],
          "profile": [
            "https://www.medizininformatik-initiative.de/fhir/ext/modul-biobank/StructureDefinition/Organization"
          ]
        },
        "extension": [
          {
            "url": "https://www.medizininformatik-initiative.de/fhir/ext/modul-biobank/StructureDefinition/BeschreibungSammlung",
            "valueMarkdown": "Zentrale Biobank der Charité"
          }
        ],
        "identifier": [
          {
            "system": "http://www.bbmri-eric.eu/",
            "value": "de-12345"
          }
        ],
        "alias": [
          "ZeBanC"
        ],
        "contact": [
          {
            "extension": [
              {
                "url": "https://www.medizininformatik-initiative.de/fhir/ext/modul-biobank/StructureDefinition/KontaktRolle",
                "valueString": "Direktor"
              }
            ],
            "name": {
              "given": [
                "Koch"
              ],
              "prefix": [
                "Prof."
              ],
              "family": "Robert"
            },
            "telecom": [
              {
                "system": "email",
                "value": "robert.koch@charite.de"
              }
            ],
            "address": {
              "line": [
                "Südring 7"
              ],
              "postalCode": "13353",
              "city": "Berlin"
            },
            "purpose": {
              "coding": [
                {
                  "system": "https://www.medizininformatik-initiative.de/fhir/ext/modul-biobank/CodeSystem/ContactType",
                  "code": "RESEARCH"
                }
              ]
            }
          }
        ],
        "name": "Zentrale Biobank der Charité",
        "partOf": {
          "reference": "Organization/mii-exa-test-data-organization-charite"
        }
      }
    },
    {
      "request": {
        "method": "POST",
        "url": "DiagnosticReport"
      },
      "fullUrl": "https://www.medizininformatik-initiative.de/DiagnosticReport/mii-exa-test-data-patient-1-labreport-1",
      "resource": {
        "resourceType": "DiagnosticReport",
        "id": "mii-exa-test-data-patient-1-labreport-1",
        "meta": {
          "security": [
            {
              "code": "HTEST",
              "system": "http://terminology.hl7.org/CodeSystem/v3-ActReason",
              "display": "test health data"
            }
          ],
          "profile": [
            "https://www.medizininformatik-initiative.de/fhir/core/modul-labor/StructureDefinition/DiagnosticReportLab"
          ]
        },
        "identifier": [
          {
            "assigner": {
              "identifier": {
                "system": "https://www.medizininformatik-initiative.de/fhir/core/CodeSystem/core-location-identifier",
                "value": "Charité"
              }
            },
            "type": {
              "coding": [
                {
                  "system": "http://terminology.hl7.org/CodeSystem/v2-0203",
                  "code": "FILL"
                }
              ]
            },
            "system": "https://www.charite.de/fhir/sid/lab-results",
            "value": "LDR_000001"
          }
        ],
        "category": [
          {
            "coding": [
              {
                "system": "http://loinc.org",
                "code": "26436-6",
                "display": "Laboratory studies (set)"
              },
              {
                "system": "http://terminology.hl7.org/CodeSystem/v2-0074",
                "code": "LAB"
              }
            ]
          }
        ],
        "code": {
          "coding": [
            {
              "system": "http://loinc.org",
              "code": "11502-2",
              "display": "Laboratory report"
            }
          ]
        },
        "basedOn": [
          {
            "reference": "ServiceRequest/mii-exa-test-data-patient-1-labrequest-1"
          }
        ],
        "performer": [
          {
            "reference": "Organization/mii-exa-test-data-organization-labor-berlin"
          }
        ],
        "specimen": [
          {
            "reference": "Specimen/mii-exa-test-data-patient-1-specimen-1"
          }
        ],
        "result": [
          {
            "reference": "Observation/mii-exa-test-data-patient-1-labobs-1"
          },
          {
            "reference": "Observation/mii-exa-test-data-patient-1-labobs-2"
          },
          {
            "reference": "Observation/mii-exa-test-data-patient-1-labobs-3"
          },
          {
            "reference": "Observation/mii-exa-test-data-patient-1-labobs-4"
          },
          {
            "reference": "Observation/mii-exa-test-data-patient-1-labobs-5"
          },
          {
            "reference": "Observation/mii-exa-test-data-patient-1-labobs-6"
          }
        ],
        "status": "final",
        "subject": {
          "reference": "Patient/mii-exa-test-data-patient-1"
        },
        "encounter": {
          "reference": "Encounter/mii-exa-test-data-patient-1-encounter-1"
        },
        "effectiveDateTime": "2024-02-15T12:00:00+01:00",
        "issued": "2024-02-15T12:00:00+01:00",
        "conclusion": "Leukozyten hoch"
      }
    },
    {
      "request": {
        "method": "POST",
        "url": "ServiceRequest"
      },
      "fullUrl": "https://www.medizininformatik-initiative.de/ServiceRequest/mii-exa-test-data-patient-1-labrequest-1",
      "resource": {
        "resourceType": "ServiceRequest",
        "id": "mii-exa-test-data-patient-1-labrequest-1",
        "meta": {
          "security": [
            {
              "code": "HTEST",
              "system": "http://terminology.hl7.org/CodeSystem/v3-ActReason",
              "display": "test health data"
            }
          ],
          "profile": [
            "https://www.medizininformatik-initiative.de/fhir/core/modul-labor/StructureDefinition/ServiceRequestLab"
          ]
        },
        "identifier": [
          {
            "assigner": {
              "identifier": {
                "system": "https://www.medizininformatik-initiative.de/fhir/core/CodeSystem/core-location-identifier",
                "value": "Charité"
              }
            },
            "type": {
              "coding": [
                {
                  "system": "http://terminology.hl7.org/CodeSystem/v2-0203",
                  "code": "PLAC"
                }
              ]
            },
            "system": "https://www.charite.de/fhir/sid/Laboranforderungen",
            "value": "LA_000001"
          }
        ],
        "category": [
          {
            "coding": [
              {
                "system": "http://terminology.hl7.org/CodeSystem/observation-category",
                "code": "laboratory"
              }
            ]
          }
        ],
        "code": {
          "coding": [
            {
              "code": "55429-5",
              "system": "http://loinc.org",
              "display": "Short blood count panel - Blood"
            }
          ],
          "text": "kleines Blutbild"
        },
        "specimen": [
          {
            "reference": "Specimen/mii-exa-test-data-patient-1-specimen-1"
          }
        ],
        "status": "completed",
        "intent": "order",
        "subject": {
          "reference": "Patient/mii-exa-test-data-patient-1"
        },
        "encounter": {
          "reference": "Encounter/mii-exa-test-data-patient-1-encounter-1"
        },
        "authoredOn": "2024-02-15T10:28:00+01:00"
      }
    },
    {
      "request": {
        "method": "POST",
        "url": "Organization"
      },
      "fullUrl": "https://www.medizininformatik-initiative.de/Organization/mii-exa-test-data-organization-labor-berlin",
      "resource": {
        "resourceType": "Organization",
        "id": "mii-exa-test-data-organization-labor-berlin",
        "meta": {
          "security": [
            {
              "code": "HTEST",
              "system": "http://terminology.hl7.org/CodeSystem/v3-ActReason",
              "display": "test health data"
            }
          ]
        },
        "type": [
          {
            "coding": [
              {
                "code": "prov",
                "system": "http://terminology.hl7.org/CodeSystem/organization-type",
                "display": "Healthcare Provider"
              }
            ]
          }
        ],
        "name": "Labor Berlin – Charité Vivantes GmbH"
      }
    },
    {
      "request": {
        "method": "POST",
        "url": "Observation"
      },
      "fullUrl": "https://www.medizininformatik-initiative.de/Observation/mii-exa-test-data-patient-1-labobs-1",
      "resource": {
        "resourceType": "Observation",
        "id": "mii-exa-test-data-patient-1-labobs-1",
        "meta": {
          "security": [
            {
              "code": "HTEST",
              "system": "http://terminology.hl7.org/CodeSystem/v3-ActReason",
              "display": "test health data"
            }
          ],
          "profile": [
            "https://www.medizininformatik-initiative.de/fhir/core/modul-labor/StructureDefinition/ObservationLab"
          ]
        },
        "identifier": [
          {
            "assigner": {
              "identifier": {
                "system": "https://www.medizininformatik-initiative.de/fhir/core/CodeSystem/core-location-identifier",
                "value": "Charité"
              }
            },
            "type": {
              "coding": [
                {
                  "system": "http://terminology.hl7.org/CodeSystem/v2-0203",
                  "code": "OBI"
                }
              ]
            },
            "system": "https://www.charite.de/fhir/sid/lab-results",
            "value": "LO_000001"
          }
        ],
        "category": [
          {
            "coding": [
              {
                "system": "http://loinc.org",
                "code": "26436-6",
                "display": "Laboratory studies (set)"
              },
              {
                "system": "http://terminology.hl7.org/CodeSystem/observation-category",
                "code": "laboratory",
                "display": "Laboratory"
              }
            ]
          }
        ],
        "basedOn": [
          {
            "reference": "ServiceRequest/mii-exa-test-data-patient-1-labrequest-1"
          }
        ],
        "interpretation": [
          {
            "coding": [
              {
                "code": "H",
                "system": "http://terminology.hl7.org/CodeSystem/v3-ObservationInterpretation",
                "display": "High"
              }
            ]
          }
        ],
        "note": [
          {
            "text": "Leukozyten EDTA-Blut Impedanzmessung"
          }
        ],
        "referenceRange": [
          {
            "appliesTo": [
              {
                "coding": [
                  {
                    "code": "248153007",
                    "system": "http://snomed.info/sct",
                    "version": "http://snomed.info/sct/900000000000207008/version/20230731",
                    "display": "Male (finding)"
                  }
                ]
              }
            ],
            "age": {
              "low": {
                "value": 18,
                "code": "a",
                "system": "http://unitsofmeasure.org",
                "unit": "year"
              },
              "high": {
                "value": 65,
                "code": "a",
                "system": "http://unitsofmeasure.org",
                "unit": "year"
              }
            },
            "low": {
              "value": 3.9,
              "code": "/nL",
              "system": "http://unitsofmeasure.org",
              "unit": "/nanoliter"
            },
            "high": {
              "value": 10.5,
              "code": "/nL",
              "system": "http://unitsofmeasure.org",
              "unit": "/nanoliter"
            },
            "type": {
              "coding": [
                {
                  "code": "normal",
                  "system": "http://terminology.hl7.org/CodeSystem/referencerange-meaning",
                  "display": "Normal Range"
                }
              ]
            }
          }
        ],
        "valueQuantity": {
          "system": "http://unitsofmeasure.org",
          "value": 17,
          "code": "/nL",
          "unit": "/nanoliter"
        },
        "status": "final",
        "code": {
          "coding": [
            {
              "code": "26464-8",
              "system": "http://loinc.org",
              "display": "Leukocytes [#/volume] in Blood"
            }
          ]
        },
        "subject": {
          "reference": "Patient/mii-exa-test-data-patient-1"
        },
        "encounter": {
          "reference": "Encounter/mii-exa-test-data-patient-1-encounter-1"
        },
        "effectiveDateTime": "2024-02-15T12:00:00+01:00",
        "issued": "2024-02-15T12:00:00+01:00",
        "method": {
          "coding": [
            {
              "code": "703452004",
              "system": "http://snomed.info/sct",
              "version": "http://snomed.info/sct/900000000000207008/version/20230731",
              "display": "Electrical impedance technique (qualifier value)"
            }
          ]
        },
        "specimen": {
          "reference": "Specimen/mii-exa-test-data-patient-1-specimen-1"
        },
        "device": {
          "reference": "Device/mii-exa-test-data-device-roche-cobas-c303"
        }
      }
    },
    {
      "request": {
        "method": "POST",
        "url": "Observation"
      },
      "fullUrl": "https://www.medizininformatik-initiative.de/Observation/mii-exa-test-data-patient-1-labobs-2",
      "resource": {
        "resourceType": "Observation",
        "id": "mii-exa-test-data-patient-1-labobs-2",
        "meta": {
          "security": [
            {
              "code": "HTEST",
              "system": "http://terminology.hl7.org/CodeSystem/v3-ActReason",
              "display": "test health data"
            }
          ],
          "profile": [
            "https://www.medizininformatik-initiative.de/fhir/core/modul-labor/StructureDefinition/ObservationLab"
          ]
        },
        "identifier": [
          {
            "assigner": {
              "identifier": {
                "system": "https://www.medizininformatik-initiative.de/fhir/core/CodeSystem/core-location-identifier",
                "value": "Charité"
              }
            },
            "type": {
              "coding": [
                {
                  "system": "http://terminology.hl7.org/CodeSystem/v2-0203",
                  "code": "OBI"
                }
              ]
            },
            "system": "https://www.charite.de/fhir/sid/lab-results",
            "value": "LO_000002"
          }
        ],
        "category": [
          {
            "coding": [
              {
                "system": "http://loinc.org",
                "code": "26436-6",
                "display": "Laboratory studies (set)"
              },
              {
                "system": "http://terminology.hl7.org/CodeSystem/observation-category",
                "code": "laboratory",
                "display": "Laboratory"
              }
            ]
          }
        ],
        "basedOn": [
          {
            "reference": "ServiceRequest/mii-exa-test-data-patient-1-labrequest-1"
          }
        ],
        "interpretation": [
          {
            "coding": [
              {
                "code": "N",
                "system": "http://terminology.hl7.org/CodeSystem/v3-ObservationInterpretation",
                "display": "Normal"
              }
            ]
          }
        ],
        "note": [
          {
            "text": "Erythrozyten EDTA-Blut Impedanzmessung"
          }
        ],
        "referenceRange": [
          {
            "appliesTo": [
              {
                "coding": [
                  {
                    "code": "248153007",
                    "system": "http://snomed.info/sct",
                    "version": "http://snomed.info/sct/900000000000207008/version/20230731",
                    "display": "Male (finding)"
                  }
                ]
              }
            ],
            "age": {
              "low": {
                "value": 18,
                "code": "a",
                "system": "http://unitsofmeasure.org",
                "unit": "year"
              },
              "high": {
                "value": 65,
                "code": "a",
                "system": "http://unitsofmeasure.org",
                "unit": "year"
              }
            },
            "low": {
              "value": 4.3,
              "code": "/pL",
              "system": "http://unitsofmeasure.org",
              "unit": "/picoliter"
            },
            "high": {
              "value": 5.8,
              "code": "/pL",
              "system": "http://unitsofmeasure.org",
              "unit": "/picoliter"
            },
            "type": {
              "coding": [
                {
                  "code": "normal",
                  "system": "http://terminology.hl7.org/CodeSystem/referencerange-meaning",
                  "display": "Normal Range"
                }
              ]
            }
          }
        ],
        "valueQuantity": {
          "system": "http://unitsofmeasure.org",
          "value": 5,
          "code": "/pL",
          "unit": "/nanoLiters"
        },
        "status": "final",
        "code": {
          "coding": [
            {
              "code": "26453-1",
              "system": "http://loinc.org",
              "display": "Erythrocytes [#/volume] in Blood"
            }
          ]
        },
        "subject": {
          "reference": "Patient/mii-exa-test-data-patient-1"
        },
        "encounter": {
          "reference": "Encounter/mii-exa-test-data-patient-1-encounter-1"
        },
        "effectiveDateTime": "2024-02-15T12:00:00+01:00",
        "issued": "2024-02-15T12:00:00+01:00",
        "method": {
          "coding": [
            {
              "code": "703452004",
              "system": "http://snomed.info/sct",
              "version": "http://snomed.info/sct/900000000000207008/version/20230731",
              "display": "Electrical impedance technique (qualifier value)"
            }
          ]
        },
        "specimen": {
          "reference": "Specimen/mii-exa-test-data-patient-1-specimen-1"
        },
        "device": {
          "reference": "Device/mii-exa-test-data-device-roche-cobas-c303"
        }
      }
    },
    {
      "request": {
        "method": "POST",
        "url": "Observation"
      },
      "fullUrl": "https://www.medizininformatik-initiative.de/Observation/mii-exa-test-data-patient-1-labobs-3",
      "resource": {
        "resourceType": "Observation",
        "id": "mii-exa-test-data-patient-1-labobs-3",
        "meta": {
          "security": [
            {
              "code": "HTEST",
              "system": "http://terminology.hl7.org/CodeSystem/v3-ActReason",
              "display": "test health data"
            }
          ],
          "profile": [
            "https://www.medizininformatik-initiative.de/fhir/core/modul-labor/StructureDefinition/ObservationLab"
          ]
        },
        "identifier": [
          {
            "assigner": {
              "identifier": {
                "system": "https://www.medizininformatik-initiative.de/fhir/core/CodeSystem/core-location-identifier",
                "value": "Charité"
              }
            },
            "type": {
              "coding": [
                {
                  "system": "http://terminology.hl7.org/CodeSystem/v2-0203",
                  "code": "OBI"
                }
              ]
            },
            "system": "https://www.charite.de/fhir/sid/lab-results",
            "value": "LO_000003"
          }
        ],
        "category": [
          {
            "coding": [
              {
                "system": "http://loinc.org",
                "code": "26436-6",
                "display": "Laboratory studies (set)"
              },
              {
                "system": "http://terminology.hl7.org/CodeSystem/observation-category",
                "code": "laboratory",
                "display": "Laboratory"
              }
            ]
          }
        ],
        "basedOn": [
          {
            "reference": "ServiceRequest/mii-exa-test-data-patient-1-labrequest-1"
          }
        ],
        "interpretation": [
          {
            "coding": [
              {
                "code": "N",
                "system": "http://terminology.hl7.org/CodeSystem/v3-ObservationInterpretation",
                "display": "Normal"
              }
            ]
          }
        ],
        "note": [
          {
            "text": "Hämatokrit EDTA-Blut Impedanzmessung"
          }
        ],
        "referenceRange": [
          {
            "appliesTo": [
              {
                "coding": [
                  {
                    "code": "248153007",
                    "system": "http://snomed.info/sct",
                    "version": "http://snomed.info/sct/900000000000207008/version/20230731",
                    "display": "Male (finding)"
                  }
                ]
              }
            ],
            "age": {
              "low": {
                "value": 18,
                "code": "a",
                "system": "http://unitsofmeasure.org",
                "unit": "year"
              },
              "high": {
                "value": 65,
                "code": "a",
                "system": "http://unitsofmeasure.org",
                "unit": "year"
              }
            },
            "low": {
              "value": 40,
              "code": "%",
              "system": "http://unitsofmeasure.org",
              "unit": "percent"
            },
            "high": {
              "value": 51,
              "code": "%",
              "system": "http://unitsofmeasure.org",
              "unit": "percent"
            },
            "type": {
              "coding": [
                {
                  "code": "normal",
                  "system": "http://terminology.hl7.org/CodeSystem/referencerange-meaning",
                  "display": "Normal Range"
                }
              ]
            }
          }
        ],
        "valueQuantity": {
          "system": "http://unitsofmeasure.org",
          "value": 45,
          "code": "%",
          "unit": "percent"
        },
        "status": "final",
        "code": {
          "coding": [
            {
              "code": "20570-8",
              "system": "http://loinc.org",
              "display": "Hematocrit [Volume Fraction] of Blood by calculation"
            }
          ]
        },
        "subject": {
          "reference": "Patient/mii-exa-test-data-patient-1"
        },
        "encounter": {
          "reference": "Encounter/mii-exa-test-data-patient-1-encounter-1"
        },
        "effectiveDateTime": "2024-02-15T12:00:00+01:00",
        "issued": "2024-02-15T12:00:00+01:00",
        "method": {
          "coding": [
            {
              "code": "703452004",
              "system": "http://snomed.info/sct",
              "version": "http://snomed.info/sct/900000000000207008/version/20230731",
              "display": "Electrical impedance technique (qualifier value)"
            }
          ]
        },
        "specimen": {
          "reference": "Specimen/mii-exa-test-data-patient-1-specimen-1"
        },
        "device": {
          "reference": "Device/mii-exa-test-data-device-roche-cobas-c303"
        }
      }
    },
    {
      "request": {
        "method": "POST",
        "url": "Observation"
      },
      "fullUrl": "https://www.medizininformatik-initiative.de/Observation/mii-exa-test-data-patient-1-labobs-4",
      "resource": {
        "resourceType": "Observation",
        "id": "mii-exa-test-data-patient-1-labobs-4",
        "meta": {
          "security": [
            {
              "code": "HTEST",
              "system": "http://terminology.hl7.org/CodeSystem/v3-ActReason",
              "display": "test health data"
            }
          ],
          "profile": [
            "https://www.medizininformatik-initiative.de/fhir/core/modul-labor/StructureDefinition/ObservationLab"
          ]
        },
        "identifier": [
          {
            "assigner": {
              "identifier": {
                "system": "https://www.medizininformatik-initiative.de/fhir/core/CodeSystem/core-location-identifier",
                "value": "Charité"
              }
            },
            "type": {
              "coding": [
                {
                  "system": "http://terminology.hl7.org/CodeSystem/v2-0203",
                  "code": "OBI"
                }
              ]
            },
            "system": "https://www.charite.de/fhir/sid/lab-results",
            "value": "LO_000004"
          }
        ],
        "category": [
          {
            "coding": [
              {
                "system": "http://loinc.org",
                "code": "26436-6",
                "display": "Laboratory studies (set)"
              },
              {
                "system": "http://terminology.hl7.org/CodeSystem/observation-category",
                "code": "laboratory",
                "display": "Laboratory"
              }
            ]
          }
        ],
        "basedOn": [
          {
            "reference": "ServiceRequest/mii-exa-test-data-patient-1-labrequest-1"
          }
        ],
        "interpretation": [
          {
            "coding": [
              {
                "code": "N",
                "system": "http://terminology.hl7.org/CodeSystem/v3-ObservationInterpretation",
                "display": "Normal"
              }
            ]
          }
        ],
        "note": [
          {
            "text": "Hämoglobin EDTA-Blut Photometrie"
          }
        ],
        "referenceRange": [
          {
            "appliesTo": [
              {
                "coding": [
                  {
                    "code": "248153007",
                    "system": "http://snomed.info/sct",
                    "version": "http://snomed.info/sct/900000000000207008/version/20230731",
                    "display": "Male (finding)"
                  }
                ]
              }
            ],
            "age": {
              "low": {
                "value": 18,
                "code": "a",
                "system": "http://unitsofmeasure.org",
                "unit": "year"
              },
              "high": {
                "value": 65,
                "code": "a",
                "system": "http://unitsofmeasure.org",
                "unit": "year"
              }
            },
            "low": {
              "value": 13.5,
              "code": "g/dL",
              "system": "http://unitsofmeasure.org",
              "unit": "gram per deciliter"
            },
            "high": {
              "value": 17,
              "code": "g/dL",
              "system": "http://unitsofmeasure.org",
              "unit": "gram per deciliter"
            },
            "type": {
              "coding": [
                {
                  "code": "normal",
                  "system": "http://terminology.hl7.org/CodeSystem/referencerange-meaning",
                  "display": "Normal Range"
                }
              ]
            }
          }
        ],
        "valueQuantity": {
          "system": "http://unitsofmeasure.org",
          "value": 45,
          "code": "g/dL",
          "unit": "gram per deciliter"
        },
        "status": "final",
        "code": {
          "coding": [
            {
              "code": "718-7",
              "system": "http://loinc.org",
              "display": "Hemoglobin [Mass/volume] in Blood"
            }
          ]
        },
        "subject": {
          "reference": "Patient/mii-exa-test-data-patient-1"
        },
        "encounter": {
          "reference": "Encounter/mii-exa-test-data-patient-1-encounter-1"
        },
        "effectiveDateTime": "2024-02-15T12:00:00+01:00",
        "issued": "2024-02-15T12:00:00+01:00",
        "method": {
          "coding": [
            {
              "code": "83561000052101",
              "system": "http://snomed.info/sct",
              "version": "http://snomed.info/sct/900000000000207008/version/20230731",
              "display": "Photometry technique (qualifier value)"
            }
          ]
        },
        "specimen": {
          "reference": "Specimen/mii-exa-test-data-patient-1-specimen-1"
        },
        "device": {
          "reference": "Device/mii-exa-test-data-device-roche-cobas-c303"
        }
      }
    },
    {
      "request": {
        "method": "POST",
        "url": "Observation"
      },
      "fullUrl": "https://www.medizininformatik-initiative.de/Observation/mii-exa-test-data-patient-1-labobs-5",
      "resource": {
        "resourceType": "Observation",
        "id": "mii-exa-test-data-patient-1-labobs-5",
        "meta": {
          "security": [
            {
              "code": "HTEST",
              "system": "http://terminology.hl7.org/CodeSystem/v3-ActReason",
              "display": "test health data"
            }
          ],
          "profile": [
            "https://www.medizininformatik-initiative.de/fhir/core/modul-labor/StructureDefinition/ObservationLab"
          ]
        },
        "identifier": [
          {
            "assigner": {
              "identifier": {
                "system": "https://www.medizininformatik-initiative.de/fhir/core/CodeSystem/core-location-identifier",
                "value": "Charité"
              }
            },
            "type": {
              "coding": [
                {
                  "system": "http://terminology.hl7.org/CodeSystem/v2-0203",
                  "code": "OBI"
                }
              ]
            },
            "system": "https://www.charite.de/fhir/sid/lab-results",
            "value": "LO_000005"
          }
        ],
        "category": [
          {
            "coding": [
              {
                "system": "http://loinc.org",
                "code": "26436-6",
                "display": "Laboratory studies (set)"
              },
              {
                "system": "http://terminology.hl7.org/CodeSystem/observation-category",
                "code": "laboratory",
                "display": "Laboratory"
              }
            ]
          }
        ],
        "basedOn": [
          {
            "reference": "ServiceRequest/mii-exa-test-data-patient-1-labrequest-1"
          }
        ],
        "interpretation": [
          {
            "coding": [
              {
                "code": "N",
                "system": "http://terminology.hl7.org/CodeSystem/v3-ObservationInterpretation",
                "display": "Normal"
              }
            ]
          }
        ],
        "note": [
          {
            "text": "Thrombozyten EDTA-Blut Impedanzmessung"
          }
        ],
        "referenceRange": [
          {
            "appliesTo": [
              {
                "coding": [
                  {
                    "code": "248153007",
                    "system": "http://snomed.info/sct",
                    "version": "http://snomed.info/sct/900000000000207008/version/20230731",
                    "display": "Male (finding)"
                  }
                ]
              }
            ],
            "age": {
              "low": {
                "value": 18,
                "code": "a",
                "system": "http://unitsofmeasure.org",
                "unit": "year"
              },
              "high": {
                "value": 65,
                "code": "a",
                "system": "http://unitsofmeasure.org",
                "unit": "year"
              }
            },
            "low": {
              "value": 150,
              "code": "/nL",
              "system": "http://unitsofmeasure.org",
              "unit": "/nanoliter"
            },
            "high": {
              "value": 370,
              "code": "/nL",
              "system": "http://unitsofmeasure.org",
              "unit": "/nanoliter"
            },
            "type": {
              "coding": [
                {
                  "code": "normal",
                  "system": "http://terminology.hl7.org/CodeSystem/referencerange-meaning",
                  "display": "Normal Range"
                }
              ]
            }
          }
        ],
        "valueQuantity": {
          "system": "http://unitsofmeasure.org",
          "value": 355,
          "code": "/nL",
          "unit": "/nanoliter"
        },
        "status": "final",
        "code": {
          "coding": [
            {
              "code": "26515-7",
              "system": "http://loinc.org",
              "display": "Platelets [#/volume] in Blood"
            }
          ]
        },
        "subject": {
          "reference": "Patient/mii-exa-test-data-patient-1"
        },
        "encounter": {
          "reference": "Encounter/mii-exa-test-data-patient-1-encounter-1"
        },
        "effectiveDateTime": "2024-02-15T12:00:00+01:00",
        "issued": "2024-02-15T12:00:00+01:00",
        "method": {
          "coding": [
            {
              "code": "703452004",
              "system": "http://snomed.info/sct",
              "version": "http://snomed.info/sct/900000000000207008/version/20230731",
              "display": "Electrical impedance technique (qualifier value)"
            }
          ]
        },
        "specimen": {
          "reference": "Specimen/mii-exa-test-data-patient-1-specimen-1"
        },
        "device": {
          "reference": "Device/mii-exa-test-data-device-roche-cobas-c303"
        }
      }
    },
    {
      "request": {
        "method": "POST",
        "url": "Observation"
      },
      "fullUrl": "https://www.medizininformatik-initiative.de/Observation/mii-exa-test-data-patient-1-labobs-6",
      "resource": {
        "resourceType": "Observation",
        "id": "mii-exa-test-data-patient-1-labobs-6",
        "meta": {
          "security": [
            {
              "code": "HTEST",
              "system": "http://terminology.hl7.org/CodeSystem/v3-ActReason",
              "display": "test health data"
            }
          ],
          "profile": [
            "https://www.medizininformatik-initiative.de/fhir/core/modul-labor/StructureDefinition/ObservationLab"
          ]
        },
        "identifier": [
          {
            "assigner": {
              "identifier": {
                "system": "https://www.medizininformatik-initiative.de/fhir/core/CodeSystem/core-location-identifier",
                "value": "Charité"
              }
            },
            "type": {
              "coding": [
                {
                  "system": "http://terminology.hl7.org/CodeSystem/v2-0203",
                  "code": "OBI"
                }
              ]
            },
            "system": "https://www.charite.de/fhir/sid/lab-results",
            "value": "LO_000006"
          }
        ],
        "category": [
          {
            "coding": [
              {
                "system": "http://loinc.org",
                "code": "26436-6",
                "display": "Laboratory studies (set)"
              },
              {
                "system": "http://terminology.hl7.org/CodeSystem/observation-category",
                "code": "laboratory",
                "display": "Laboratory"
              }
            ]
          }
        ],
        "basedOn": [
          {
            "reference": "ServiceRequest/mii-exa-test-data-patient-1-labrequest-1"
          }
        ],
        "status": "final",
        "code": {
          "coding": [
            {
              "code": "788-0",
              "system": "http://loinc.org",
              "display": "Erythrocyte [DistWidth] in Red Blood Cells by Automated count"
            }
          ]
        },
        "subject": {
          "reference": "Patient/mii-exa-test-data-patient-1"
        },
        "encounter": {
          "reference": "Encounter/mii-exa-test-data-patient-1-encounter-1"
        },
        "effectiveDateTime": "2024-02-15T12:00:00+01:00",
        "issued": "2024-02-15T12:00:00+01:00",
        "dataAbsentReason": {
          "coding": [
            {
              "code": "not-performed",
              "system": "http://terminology.hl7.org/CodeSystem/data-absent-reason",
              "display": "Not Performed"
            }
          ]
        }
      }
    },
    {
      "request": {
        "method": "POST",
        "url": "Observation"
      },
      "fullUrl": "https://www.medizininformatik-initiative.de/Observation/mii-exa-test-data-patient-1-labobs-7",
      "resource": {
        "resourceType": "Observation",
        "id": "mii-exa-test-data-patient-1-labobs-7",
        "meta": {
          "profile": [
            "https://www.medizininformatik-initiative.de/fhir/core/modul-labor/StructureDefinition/ObservationLab"
          ],
          "security": [
            {
              "code": "HTEST",
              "system": "http://terminology.hl7.org/CodeSystem/v3-ActReason",
              "display": "test health data"
            }
          ]
        },
        "identifier": [
          {
            "assigner": {
              "identifier": {
                "system": "https://www.medizininformatik-initiative.de/fhir/core/CodeSystem/core-location-identifier",
                "value": "Charité"
              }
            },
            "type": {
              "coding": [
                {
                  "system": "http://terminology.hl7.org/CodeSystem/v2-0203",
                  "code": "OBI"
                }
              ]
            },
            "system": "https://www.charite.de/fhir/sid/lab-results",
            "value": "LO_000007"
          }
        ],
        "category": [
          {
            "coding": [
              {
                "system": "http://loinc.org",
                "code": "26436-6",
                "display": "Laboratory studies (set)"
              },
              {
                "system": "http://terminology.hl7.org/CodeSystem/observation-category",
                "code": "laboratory",
                "display": "Laboratory"
              }
            ]
          }
        ],
        "basedOn": [
          {
            "reference": "ServiceRequest/mii-exa-test-data-patient-1-labrequest-1"
          }
        ],
        "status": "final",
        "code": {
          "coding": [
            {
              "code": "788-0",
              "system": "http://loinc.org",
              "display": "Erythrocyte [DistWidth] in Red Blood Cells by Automated count"
            }
          ]
        },
        "subject": {
          "reference": "Patient/mii-exa-test-data-patient-1"
        },
        "encounter": {
          "reference": "Encounter/mii-exa-test-data-patient-1-encounter-1"
        },
        "effectiveDateTime": "2024-02-15T12:00:00+01:00",
        "issued": "2024-02-15T12:00:00+01:00",
        "dataAbsentReason": {
          "coding": [
            {
              "code": "not-performed",
              "system": "http://terminology.hl7.org/CodeSystem/data-absent-reason",
              "display": "Not Performed"
            }
          ]
        }
      }
    },
    {
      "request": {
        "method": "POST",
        "url": "PractitionerRole"
      },
      "fullUrl": "https://www.medizininformatik-initiative.de/PractitionerRole/mii-exa-test-data-practitioner-role-physician-1",
      "resource": {
        "resourceType": "PractitionerRole",
        "id": "mii-exa-test-data-practitioner-role-physician-1",
        "meta": {
          "security": [
            {
              "code": "HTEST",
              "system": "http://terminology.hl7.org/CodeSystem/v3-ActReason",
              "display": "test health data"
            }
          ],
          "profile": [
            "https://www.medizininformatik-initiative.de/fhir/modul-studie/StructureDefinition/mii-pr-studie-beteiligte-person"
          ]
        },
        "code": [
          {
            "coding": [
              {
                "code": "309343006",
                "system": "http://snomed.info/sct",
                "version": "http://snomed.info/sct/900000000000207008/version/20230731",
                "display": "Physician (occupation)"
              }
            ]
          }
        ],
        "active": true,
        "practitioner": {
          "reference": "Practitioner/mii-exa-test-data-practitioner-physician-1"
        },
        "organization": {
          "reference": "Organization/mii-exa-test-data-organization-charite"
        }
      }
    },
    {
      "request": {
        "method": "POST",
        "url": "Practitioner"
      },
      "fullUrl": "https://www.medizininformatik-initiative.de/Practitioner/mii-exa-test-data-practitioner-physician-1",
      "resource": {
        "resourceType": "Practitioner",
        "id": "mii-exa-test-data-practitioner-physician-1",
        "meta": {
          "security": [
            {
              "code": "HTEST",
              "system": "http://terminology.hl7.org/CodeSystem/v3-ActReason",
              "display": "test health data"
            }
          ]
        },
        "name": [
          {
            "given": [
              "Rahel"
            ],
            "family": "Hirsch"
          }
        ],
        "active": true
      }
    },
    {
      "request": {
        "method": "POST",
        "url": "BodyStructure"
      },
      "fullUrl": "https://www.medizininformatik-initiative.de/BodyStructure/mii-exa-test-data-koerperstruktur",
      "resource": {
        "resourceType": "BodyStructure",
        "id": "mii-exa-test-data-koerperstruktur",
        "meta": {
          "security": [
            {
              "code": "HTEST",
              "system": "http://terminology.hl7.org/CodeSystem/v3-ActReason",
              "display": "test health data"
            }
          ],
          "profile": [
            "https://www.medizininformatik-initiative.de/fhir/ext/modul-bildgebung/StructureDefinition/mii-pr-bildgebung-koerperstruktur"
          ]
        },
        "locationQualifier": [
          {
            "coding": [
              {
                "code": "7771000",
                "system": "http://snomed.info/sct",
                "version": "http://snomed.info/sct/900000000000207008/version/20230731",
                "display": "Left (qualifier value)"
              }
            ]
          }
        ],
        "morphology": {
          "coding": [
            {
              "code": "12747003",
              "system": "http://snomed.info/sct",
              "version": "http://snomed.info/sct/900000000000207008/version/20230731",
              "display": "Microcalcification, calcified structure (morphologic abnormality)"
            }
          ]
        },
        "location": {
          "coding": [
            {
              "code": "76752008",
              "system": "http://snomed.info/sct",
              "version": "http://snomed.info/sct/900000000000207008/version/20230731",
              "display": "Breast structure (body structure)"
            }
          ]
        },
        "patient": {
          "reference": "Patient/mii-exa-test-data-patient-1"
        }
      }
    },
    {
      "request": {
        "method": "POST",
        "url": "CarePlan"
      },
      "fullUrl": "https://www.medizininformatik-initiative.de/CarePlan/mii-exa-test-data-behandlungsempfehlung",
      "resource": {
        "resourceType": "CarePlan",
        "id": "mii-exa-test-data-behandlungsempfehlung",
        "meta": {
          "security": [
            {
              "code": "HTEST",
              "system": "http://terminology.hl7.org/CodeSystem/v3-ActReason",
              "display": "test health data"
            }
          ],
          "profile": [
            "https://www.medizininformatik-initiative.de/fhir/ext/modul-bildgebung/StructureDefinition/mii-pr-bildgebung-behandlungsempfehlung"
          ]
        },
        "supportingInfo": [
          {
            "reference": "DiagnosticReport/mii-exa-test-data-befundbericht"
          }
        ],
        "status": "completed",
        "intent": "proposal",
        "description": "The patient must receive vacuum biopsy",
        "subject": {
          "reference": "Patient/mii-exa-test-data-patient-1"
        }
      }
    },
    {
      "request": {
        "method": "POST",
        "url": "Composition"
      },
      "fullUrl": "https://www.medizininformatik-initiative.de/Composition/mii-exa-test-data-semistrukt-befundbericht",
      "resource": {
        "resourceType": "Composition",
        "id": "mii-exa-test-data-semistrukt-befundbericht",
        "meta": {
          "security": [
            {
              "code": "HTEST",
              "system": "http://terminology.hl7.org/CodeSystem/v3-ActReason",
              "display": "test health data"
            }
          ],
          "profile": [
            "https://www.medizininformatik-initiative.de/fhir/ext/modul-bildgebung/StructureDefinition/mii-pr-bildgebung-semistrukt-befundbericht"
          ]
        },
        "author": [
          {
            "reference": "Practitioner/mii-exa-test-data-practitioner-physician-1"
          }
        ],
        "section": [
          {
            "author": [
              {
                "reference": "Practitioner/mii-exa-test-data-practitioner-physician-2"
              }
            ],
            "entry": [
              {
                "reference": "DiagnosticReport/mii-exa-test-data-befundbericht"
              }
            ],
            "section": [
              {
                "entry": [
                  {
                    "reference": "Observation/mii-exa-test-data-radiologische-beobachtung"
                  }
                ]
              }
            ],
            "title": "Left Breast",
            "code": {
              "coding": [
                {
                  "code": "66110-8",
                  "system": "http://loinc.org",
                  "display": "Breast Pathology biopsy report"
                }
              ]
            }
          }
        ],
        "status": "final",
        "type": {
          "coding": [
            {
              "code": "24604-1",
              "system": "http://loinc.org",
              "display": "MG Breast Diagnostics Limited View"
            }
          ]
        },
        "subject": {
          "reference": "Patient/mii-exa-test-data-patient-1"
        },
        "date": "2024-07-19T12:03:30+02:00",
        "title": "Mammographic Report"
      }
    },
    {
      "request": {
        "method": "POST",
        "url": "Device"
      },
      "fullUrl": "https://www.medizininformatik-initiative.de/Device/mii-exa-test-data-geraet",
      "resource": {
        "resourceType": "Device",
        "id": "mii-exa-test-data-geraet",
        "meta": {
          "security": [
            {
              "code": "HTEST",
              "system": "http://terminology.hl7.org/CodeSystem/v3-ActReason",
              "display": "test health data"
            }
          ],
          "profile": [
            "https://www.medizininformatik-initiative.de/fhir/ext/modul-bildgebung/StructureDefinition/mii-pr-bildgebung-geraet"
          ]
        },
        "deviceName": [
          {
            "name": "Magnetom Vida",
            "type": "model-name"
          }
        ],
        "manufacturer": "Siemens"
      }
    },
    {
      "request": {
        "method": "POST",
        "url": "DiagnosticReport"
      },
      "fullUrl": "https://www.medizininformatik-initiative.de/DiagnosticReport/mii-exa-test-data-befundbericht",
      "resource": {
        "resourceType": "DiagnosticReport",
        "id": "mii-exa-test-data-befundbericht",
        "meta": {
          "security": [
            {
              "code": "HTEST",
              "system": "http://terminology.hl7.org/CodeSystem/v3-ActReason",
              "display": "test health data"
            }
          ],
          "profile": [
            "https://www.medizininformatik-initiative.de/fhir/ext/modul-bildgebung/StructureDefinition/mii-pr-bildgebung-radiologischer-befund"
          ]
        },
        "basedOn": [
          {
            "reference": "ServiceRequest/mii-exa-test-data-anforderung"
          }
        ],
        "category": [
          {
            "coding": [
              {
                "system": "http://snomed.info/sct",
                "code": "4201000179104",
                "version": "http://snomed.info/sct/900000000000207008/version/20230731",
                "display": "Imaging report"
              }
            ]
          }
        ],
        "result": [
          {
            "reference": "Observation/mii-exa-test-data-radiologische-beobachtung"
          }
        ],
        "imagingStudy": [
          {
            "reference": "ImagingStudy/mii-exa-test-data-bildgebungsstudie"
          }
        ],
        "conclusionCode": [
          {
            "coding": [
              {
                "code": "12747003",
                "system": "http://snomed.info/sct",
                "version": "http://snomed.info/sct/900000000000207008/version/20230731",
                "display": "Microcalcification, calcified structure (morphologic abnormality)"
              }
            ]
          }
        ],
        "extension": [
          {
            "extension": [
              {
                "url": "type",
                "valueCodeableConcept": {
                  "coding": [
                    {
                      "code": "SCI",
                      "system": "http://terminology.hl7.org/CodeSystem/v2-0936",
                      "display": "Supporting Clinical Information"
                    }
                  ]
                }
              },
              {
                "url": "reference",
                "valueReference": {
                  "reference": "Procedure/mii-exa-test-data-befundungsprozedur"
                }
              }
            ],
            "url": "http://hl7.org/fhir/5.0/StructureDefinition/extension-DiagnosticReport.supportingInfo"
          }
        ],
        "status": "final",
        "code": {
          "coding": [
            {
              "code": "4231000179109",
              "system": "http://snomed.info/sct",
              "version": "http://snomed.info/sct/900000000000207008/version/20230731",
              "display": "Mammography report"
            }
          ]
        },
        "subject": {
          "reference": "Patient/mii-exa-test-data-patient-1"
        },
        "encounter": {
          "reference": "Encounter/mii-exa-test-data-patient-1-encounter-1"
        },
        "effectiveDateTime": "2024-07-19T12:03:30+02:00",
        "issued": "2024-07-19T12:03:30+02:00",
        "conclusion": "There are suspicious microcalcifications in the upper outer quadrant in the left breast"
      }
    },
    {
      "request": {
        "method": "POST",
        "url": "Procedure"
      },
      "fullUrl": "https://www.medizininformatik-initiative.de/Procedure/mii-exa-test-data-bildgebungsprozedur",
      "resource": {
        "resourceType": "Procedure",
        "id": "mii-exa-test-data-bildgebungsprozedur",
        "meta": {
          "security": [
            {
              "code": "HTEST",
              "system": "http://terminology.hl7.org/CodeSystem/v3-ActReason",
              "display": "test health data"
            }
          ],
          "profile": [
            "https://www.medizininformatik-initiative.de/fhir/ext/modul-bildgebung/StructureDefinition/mii-pr-bildgebung-bildgebungsprozedur"
          ]
        },
        "basedOn": [
          {
            "reference": "ServiceRequest/mii-exa-test-data-anforderung"
          }
        ],
        "bodySite": [
          {
            "coding": [
              {
                "code": "76752008",
                "system": "http://snomed.info/sct",
                "version": "http://snomed.info/sct/900000000000207008/version/20230731",
                "display": "Breast structure (body structure)"
              }
            ]
          }
        ],
        "note": [
          {
            "text": "Durchführung einer Mammographie"
          }
        ],
        "status": "completed",
        "category": {
          "coding": [
            {
              "code": "363679005",
              "system": "http://snomed.info/sct",
              "version": "http://snomed.info/sct/900000000000207008/version/20230731",
              "display": "Imaging (procedure)"
            }
          ]
        },
        "code": {
          "coding": [
            {
              "code": "384151000119104",
              "system": "http://snomed.info/sct",
              "version": "http://snomed.info/sct/900000000000207008/version/20230731",
              "display": "Screening mammography of bilateral breasts (procedure)"
            }
          ]
        },
        "subject": {
          "reference": "Patient/mii-exa-test-data-patient-1"
        },
        "performedDateTime": "2024-07-19T12:03:30+02:00"
      }
    },
    {
      "request": {
        "method": "POST",
        "url": "ImagingStudy"
      },
      "fullUrl": "https://www.medizininformatik-initiative.de/ImagingStudy/mii-exa-test-data-bildgebungsstudie",
      "resource": {
        "resourceType": "ImagingStudy",
        "id": "mii-exa-test-data-bildgebungsstudie",
        "meta": {
          "security": [
            {
              "code": "HTEST",
              "system": "http://terminology.hl7.org/CodeSystem/v3-ActReason",
              "display": "test health data"
            }
          ],
          "profile": [
            "https://www.medizininformatik-initiative.de/fhir/ext/modul-bildgebung/StructureDefinition/mii-pr-bildgebung-bildgebungsstudie"
          ]
        },
        "extension": [
          {
            "url": "https://www.medizininformatik-initiative.de/fhir/ext/modul-bildgebung/StructureDefinition/mii-ex-bildgebung-bildgebungsgrund",
            "valueString": "Verdacht auf Mammakarzinom"
          }
        ],
        "modality": [
          {
            "code": "MR",
            "system": "http://dicom.nema.org/resources/ontology/DCM",
            "display": "Magnetic Resonance"
          }
        ],
        "basedOn": [
          {
            "reference": "ServiceRequest/mii-exa-test-data-anforderung"
          }
        ],
        "reasonReference": [
          {
            "reference": "Condition/mii-exa-test-data-patient-1-diagnose-1"
          }
        ],
        "series": [
          {
            "extension": [
              {
                "extension": [
                  {
                    "valueQuantity": {
                      "unit": "tesla",
                      "value": 3
                    },
                    "url": "magneticFieldStrength"
                  },
                  {
                    "url": "scanningSequence",
                    "valueCodeableConcept": {
                      "coding": [
                        {
                          "code": "SE",
                          "system": "https://www.medizininformatik-initiative.de/fhir/ext/modul-bildgebung/CodeSystem/mii-cs-bildgebung-scanning-sequence"
                        }
                      ]
                    }
                  },
                  {
                    "valueCodeableConcept": {
                      "coding": [
                        {
                          "code": "SP",
                          "system": "https://www.medizininformatik-initiative.de/fhir/ext/modul-bildgebung/CodeSystem/mii-cs-bildgebung-scanning-sequence-variant"
                        },
                        {
                          "code": "SK",
                          "system": "https://www.medizininformatik-initiative.de/fhir/ext/modul-bildgebung/CodeSystem/mii-cs-bildgebung-scanning-sequence-variant"
                        }
                      ]
                    },
                    "url": "scanningSequenceVariant"
                  },
                  {
                    "valueQuantity": {
                      "unit": "milliseconds",
                      "value": 388
                    },
                    "url": "echoTime"
                  },
                  {
                    "valueQuantity": {
                      "unit": "milliseconds",
                      "value": 5000
                    },
                    "url": "repetitionTime"
                  },
                  {
                    "valueQuantity": {
                      "unit": "milliseconds",
                      "value": 900
                    },
                    "url": "inversionTime"
                  },
                  {
                    "valueQuantity": {
                      "unit": "plane angle degree",
                      "value": 130
                    },
                    "url": "flipAngle"
                  }
                ],
                "url": "https://www.medizininformatik-initiative.de/fhir/ext/modul-bildgebung/StructureDefinition/mii-ex-bildgebung-modalitaet-mr"
              },
              {
                "extension": [
                  {
                    "url": "contrastBolus",
                    "valueBoolean": true
                  },
                  {
                    "url": "contrastBolusDetails",
                    "valueReference": {
                      "reference": "MedicationAdministration/mii-exa-test-data-kontrastmittelgabe"
                    }
                  }
                ],
                "url": "https://www.medizininformatik-initiative.de/fhir/ext/modul-bildgebung/StructureDefinition/mii-ex-bildgebung-kontrastmittel"
              }
            ],
            "performer": [
              {
                "actor": {
                  "reference": "Device/mii-exa-test-data-geraet"
                }
              }
            ],
            "instance": [
              {
                "extension": [
                  {
                    "extension": [
                      {
                        "valueQuantity": {
                          "unit": "millimeter",
                          "value": 0.260417
                        },
                        "url": "pixelSpacingX"
                      },
                      {
                        "valueQuantity": {
                          "unit": "millimeter",
                          "value": 0.260417
                        },
                        "url": "pixelSpacingY"
                      },
                      {
                        "valueQuantity": {
                          "unit": "millimeter",
                          "value": 3
                        },
                        "url": "sliceThickness"
                      },
                      {
                        "valueCodeableConcept": {
                          "coding": [
                            {
                              "code": "ORIGINAL",
                              "system": "https://www.medizininformatik-initiative.de/fhir/ext/modul-bildgebung/CodeSystem/mii-cs-bildgebung-instance-image-type"
                            },
                            {
                              "code": "SECONDARY",
                              "system": "https://www.medizininformatik-initiative.de/fhir/ext/modul-bildgebung/CodeSystem/mii-cs-bildgebung-instance-image-type"
                            },
                            {
                              "code": "OTHER",
                              "system": "https://www.medizininformatik-initiative.de/fhir/ext/modul-bildgebung/CodeSystem/mii-cs-bildgebung-instance-image-type"
                            }
                          ]
                        },
                        "url": "imageType"
                      }
                    ],
                    "url": "https://www.medizininformatik-initiative.de/fhir/ext/modul-bildgebung/StructureDefinition/mii-ex-bildgebung-instanz-details"
                  }
                ],
                "uid": "1.2.34.5.6789.1.2.3.45678.9123456789123456789123456789",
                "sopClass": {
                  "code": "urn:oid:1.2.840.10008.5.1.4.1.1.4",
                  "system": "urn:ietf:rfc:3986"
                },
                "number": 28
              }
            ],
            "uid": "1.2.34.5.6789.1.2.34.5678912.34567891234567891234",
            "number": 9,
            "modality": {
              "code": "MR",
              "system": "http://dicom.nema.org/resources/ontology/DCM",
              "display": "Magnetic Resonance"
            },
            "description": "T2 STIR_tra DRB",
            "numberOfInstances": 28,
            "bodySite": {
              "code": "76752008",
              "system": "http://snomed.info/sct",
              "version": "http://snomed.info/sct/900000000000207008/version/20230731",
              "display": "Breast structure (body structure)"
            },
            "laterality": {
              "code": "51440002",
              "system": "http://snomed.info/sct",
              "version": "http://snomed.info/sct/900000000000207008/version/20230731",
              "display": "Bilateral"
            },
            "started": "2024-07-19T12:03:30+02:00"
          }
        ],
        "status": "available",
        "subject": {
          "reference": "Patient/mii-exa-test-data-patient-1"
        },
        "encounter": {
          "reference": "Encounter/mii-exa-test-data-patient-1-encounter-1"
        },
        "numberOfSeries": 11,
        "numberOfInstances": 294,
        "procedureReference": {
          "reference": "Procedure/mii-exa-test-data-bildgebungsprozedur"
        },
        "description": "Mamma"
      }
    },
    {
      "request": {
        "method": "POST",
        "url": "Observation"
      },
      "fullUrl": "https://www.medizininformatik-initiative.de/Observation/mii-exa-test-data-radiologische-beobachtung",
      "resource": {
        "resourceType": "Observation",
        "id": "mii-exa-test-data-radiologische-beobachtung",
        "meta": {
          "security": [
            {
              "code": "HTEST",
              "system": "http://terminology.hl7.org/CodeSystem/v3-ActReason",
              "display": "test health data"
            }
          ],
          "profile": [
            "https://www.medizininformatik-initiative.de/fhir/ext/modul-bildgebung/StructureDefinition/mii-pr-bildgebung-radiologische-beobachtung"
          ]
        },
        "extension": [
          {
            "url": "https://www.medizininformatik-initiative.de/fhir/ext/modul-bildgebung/StructureDefinition/mii-ex-bildgebung-series-uid",
            "valueId": "1.2.34.5.6789.1.2.34.5678912.34567891234567891234"
          },
          {
            "url": "https://www.medizininformatik-initiative.de/fhir/ext/modul-bildgebung/StructureDefinition/mii-ex-bildgebung-sop-instanz-uid",
            "valueId": "1.2.34.5.6789.1.2.3.45678.9123456789123456789123456789"
          },
          {
            "url": "http://hl7.org/fhir/5.0/StructureDefinition/extension-Observation.bodyStructure",
            "valueReference": {
              "reference": "BodyStructure/mii-exa-test-data-koerperstruktur"
            }
          }
        ],
        "partOf": [
          {
            "reference": "Procedure/mii-exa-test-data-befundungsprozedur"
          }
        ],
        "category": [
          {
            "coding": [
              {
                "code": "imaging",
                "system": "http://terminology.hl7.org/CodeSystem/observation-category",
                "display": "Imaging"
              }
            ]
          }
        ],
        "hasMember": [
          {
            "reference": "Observation/mii-exa-test-data-patient-1-labobs-1"
          }
        ],
        "derivedFrom": [
          {
            "reference": "ImagingStudy/mii-exa-test-data-bildgebungsstudie"
          }
        ],
        "component": [
          {
            "code": {
              "coding": [
                {
                  "code": "10157-6",
                  "system": "http://loinc.org",
                  "display": "History of family member diseases Narrative"
                }
              ]
            },
            "valueBoolean": true
          }
        ],
        "status": "final",
        "code": {
          "coding": [
            {
              "code": "32422-8",
              "system": "http://loinc.org",
              "display": "Physical findings of Breast"
            }
          ]
        },
        "subject": {
          "reference": "Patient/mii-exa-test-data-patient-1"
        },
        "issued": "2024-07-19T12:03:30+02:00",
        "valueString": "microcalcifications in the upper outer quadrant in the left breast",
        "bodySite": {
          "coding": [
            {
              "code": "76752008",
              "system": "http://snomed.info/sct",
              "version": "http://snomed.info/sct/900000000000207008/version/20230731",
              "display": "Breast structure (body structure)"
            }
          ]
        }
      }
    },
    {
      "request": {
        "method": "POST",
        "url": "Procedure"
      },
      "fullUrl": "https://www.medizininformatik-initiative.de/Procedure/mii-exa-test-data-befundungsprozedur",
      "resource": {
        "resourceType": "Procedure",
        "id": "mii-exa-test-data-befundungsprozedur",
        "meta": {
          "security": [
            {
              "code": "HTEST",
              "system": "http://terminology.hl7.org/CodeSystem/v3-ActReason",
              "display": "test health data"
            }
          ],
          "profile": [
            "https://www.medizininformatik-initiative.de/fhir/ext/modul-bildgebung/StructureDefinition/mii-pr-bildgebung-radiologische-befundungsprozedur"
          ]
        },
        "bodySite": [
          {
            "coding": [
              {
                "code": "76752008",
                "system": "http://snomed.info/sct",
                "version": "http://snomed.info/sct/900000000000207008/version/20230731",
                "display": "Breast structure (body structure)"
              }
            ]
          }
        ],
        "report": [
          {
            "reference": "DiagnosticReport/mii-exa-test-data-befundbericht"
          }
        ],
        "note": [
          {
            "text": "Befundung eines Mamma-CTs"
          }
        ],
        "category": {
          "coding": [
            {
              "system": "http://snomed.info/sct",
              "code": "165197003",
              "version": "http://snomed.info/sct/900000000000207008/version/20230731",
              "display": "Diagnostic assessment (procedure)"
            }
          ]
        },
        "status": "completed",
        "code": {
          "coding": [
            {
              "code": "4261000179100",
              "system": "http://snomed.info/sct",
              "version": "http://snomed.info/sct/900000000000207008/version/20230731",
              "display": "Computed tomography imaging report (record artifact)"
            }
          ]
        },
        "subject": {
          "reference": "Patient/mii-exa-test-data-patient-1"
        },
        "performedDateTime": "2024-07-19T12:03:30+02:00"
      }
    },
    {
      "request": {
        "method": "POST",
        "url": "ServiceRequest"
      },
      "fullUrl": "https://www.medizininformatik-initiative.de/ServiceRequest/mii-exa-test-data-anforderung",
      "resource": {
        "resourceType": "ServiceRequest",
        "id": "mii-exa-test-data-anforderung",
        "meta": {
          "security": [
            {
              "code": "HTEST",
              "system": "http://terminology.hl7.org/CodeSystem/v3-ActReason",
              "display": "test health data"
            }
          ],
          "profile": [
            "https://www.medizininformatik-initiative.de/fhir/ext/modul-bildgebung/StructureDefinition/mii-pr-bildgebung-anforderung-bildgebung"
          ]
        },
        "category": [
          {
            "coding": [
              {
                "system": "http://snomed.info/sct",
                "code": "363679005",
                "version": "http://snomed.info/sct/900000000000207008/version/20230731",
                "display": "Imaging (procedure)"
              }
            ]
          }
        ],
        "reasonCode": [
          {
            "coding": [
              {
                "code": "268547008",
                "system": "http://snomed.info/sct",
                "version": "http://snomed.info/sct/900000000000207008/version/20230731",
                "display": "Screening for malignant neoplasm of breast (procedure)"
              }
            ]
          }
        ],
        "reasonReference": [
          {
            "reference": "Condition/mii-exa-test-data-patient-1-diagnose-1"
          }
        ],
        "supportingInfo": [
          {
            "reference": "ImagingStudy/mii-exa-test-data-bildgebungsstudie"
          }
        ],
        "status": "completed",
        "intent": "order",
        "subject": {
          "reference": "Patient/mii-exa-test-data-patient-1"
        },
        "code": {
          "coding": [
            {
              "code": "71651007",
              "system": "http://snomed.info/sct",
              "version": "http://snomed.info/sct/900000000000207008/version/20230731",
              "display": "Mammography (procedure)"
            }
          ]
        },
        "encounter": {
          "reference": "Encounter/mii-exa-test-data-patient-1-encounter-1"
        },
        "authoredOn": "2024-07-19T12:03:30+02:00",
        "requester": {
          "reference": "Organization/mii-exa-test-data-organization-biobank-charite"
        }
      }
    },
    {
      "request": {
        "method": "POST",
        "url": "MedicationAdministration"
      },
      "fullUrl": "https://www.medizininformatik-initiative.de/MedicationAdministration/mii-exa-test-data-kontrastmittelgabe",
      "resource": {
        "resourceType": "MedicationAdministration",
        "id": "mii-exa-test-data-kontrastmittelgabe",
        "meta": {
          "security": [
            {
              "code": "HTEST",
              "system": "http://terminology.hl7.org/CodeSystem/v3-ActReason",
              "display": "test health data"
            }
          ],
          "profile": [
            "https://www.medizininformatik-initiative.de/fhir/ext/modul-bildgebung/StructureDefinition/mii-pr-bildgebung-kontrastmittelgabe"
          ]
        },
        "partOf": [
          {
            "reference": "Procedure/mii-exa-test-data-bildgebungsprozedur"
          }
        ],
        "effectivePeriod": {
          "end": "2024-07-19T12:22:45+02:00",
          "start": "2024-07-19T12:21:45+02:00"
        },
        "performer": [
          {
            "actor": {
              "reference": "Practitioner/mii-exa-test-data-practitioner-physician-1"
            }
          }
        ],
        "reasonReference": [
          {
            "reference": "Condition/mii-exa-test-data-patient-1-diagnose-1"
          }
        ],
        "note": [
          {
            "text": "Kontrastmittelgabe"
          }
        ],
        "dosage": {
          "dose": {
            "system": "http://unitsofmeasure.org",
            "value": 111,
            "unit": "milliliter",
            "code": "mm"
          }
        },
        "status": "completed",
        "category": {
          "coding": [
            {
              "code": "inpatient",
              "system": "http://terminology.hl7.org/CodeSystem/medication-admin-category",
              "display": "Inpatient"
            }
          ]
        },
        "subject": {
          "reference": "Patient/mii-exa-test-data-patient-1"
        },
        "medicationReference": {
          "reference": "Medication/mii-exa-test-data-medication-dalbavancin"
        },
        "request": {
          "reference": "MedicationRequest/mii-exa-test-data-patient-1-medrequest-1"
        }
      }
    }
  ],
  "type": "transaction",
  "timestamp": "2025-06-18T13:51:00+02:00"
}
