{
  "resourceType": "Bundle",
  "id": "mii-exa-test-data-bundle-pat-6",
  "meta": {
    "security": [
      {
        "code": "HTEST",
        "system": "http://terminology.hl7.org/CodeSystem/v3-ActReason",
        "display": "test health data"
      }
    ]
  },
  "entry": [
    {
      "request": {
        "method": "POST",
        "url": "Patient"
      },
      "fullUrl": "https://www.medizininformatik-initiative.de/Patient/mii-exa-test-data-patient-6",
      "resource": {
        "resourceType": "Patient",
        "id": "mii-exa-test-data-patient-6",
        "meta": {
          "security": [
            {
              "code": "HTEST",
              "system": "http://terminology.hl7.org/CodeSystem/v3-ActReason",
              "display": "test health data"
            }
          ],
          "profile": [
            "https://www.medizininformatik-initiative.de/fhir/core/modul-person/StructureDefinition/Patient",
            "http://fhir.de/ConsentManagement/StructureDefinition/Patient"
          ]
        },
        "identifier": [
          {
            "assigner": {
              "identifier": {
                "system": "https://www.medizininformatik-initiative.de/fhir/core/CodeSystem/core-location-identifier",
                "value": "Charité"
              },
              "display": "Charité - Universitätsmedizin Berlin"
            },
            "type": {
              "coding": [
                {
                  "system": "http://terminology.hl7.org/CodeSystem/v2-0203",
                  "code": "MR"
                }
              ]
            },
            "use": "usual",
            "system": "https://www.medizininformatik-initiative.de/fhir/sid/patienten",
            "value": "456789123"
          },
          {
            "assigner": {
              "identifier": {
                "use": "official",
                "value": "123456789",
                "system": "http://fhir.de/sid/arge-ik/iknr"
              }
            },
            "use": "official",
            "type": {
              "coding": [
                {
                  "code": "KVZ10",
                  "system": "http://fhir.de/CodeSystem/identifier-type-de-basis"
                }
              ]
            },
            "system": "http://fhir.de/sid/gkv/kvid-10",
            "value": "D345678901"
          }
        ],
        "name": [
          {
            "given": [
              "Thomas",
              "Michael"
            ],
            "use": "official",
            "family": "Richter"
          }
        ],
        "address": [
          {
            "line": [
              "Hauptstraße 134"
            ],
            "type": "both",
            "city": "Hamburg",
            "postalCode": "20095",
            "country": "DE"
          }
        ],
        "gender": "male",
        "birthDate": "1975-11-08",
        "deceasedBoolean": false
      }
    },
    {
      "request": {
        "method": "POST",
        "url": "Consent"
      },
      "fullUrl": "https://www.medizininformatik-initiative.de/Consent/mii-exa-test-data-patient-6-consent-1",
      "resource": {
        "resourceType": "Consent",
        "id": "mii-exa-test-data-patient-6-consent-1",
        "meta": {
          "security": [
            {
              "code": "HTEST",
              "system": "http://terminology.hl7.org/CodeSystem/v3-ActReason",
              "display": "test health data"
            }
          ],
          "profile": [
            "https://www.medizininformatik-initiative.de/fhir/modul-consent/StructureDefinition/mii-pr-consent-einwilligung"
          ]
        },
        "category": [
          {
            "coding": [
              {
                "system": "http://loinc.org",
                "code": "57016-8"
              }
            ]
          },
          {
            "coding": [
              {
                "code": "2.16.840.1.113883.3.1937.777.24.2.184",
                "system": "https://www.medizininformatik-initiative.de/fhir/modul-consent/CodeSystem/mii-cs-consent-consent_category"
              }
            ]
          }
        ],
        "organization": [
          {
            "reference": "Organization/mii-exa-test-data-organization-charite"
          }
        ],
        "policy": [
          {
            "uri": "urn:oid:2.16.840.1.113883.3.1937.777.24.2.1791"
          }
        ],
        "provision": {
          "period": {
            "start": "2022-03-08",
            "end": "2052-03-31"
          },
          "provision": [
            {
              "period": {
                "start": "2022-03-08",
                "end": "2052-03-31"
              },
              "code": [
                {
                  "coding": [
                    {
                      "code": "2.16.840.1.113883.3.1937.777.24.5.3.6",
                      "system": "urn:oid:2.16.840.1.113883.3.1937.777.24.5.3",
                      "display": "MDAT erheben"
                    }
                  ]
                }
              ],
              "type": "permit"
            },
            {
              "period": {
                "start": "2022-03-08",
                "end": "2052-03-31"
              },
              "code": [
                {
                  "coding": [
                    {
                      "code": "2.16.840.1.113883.3.1937.777.24.5.3.7",
                      "system": "urn:oid:2.16.840.1.113883.3.1937.777.24.5.3",
                      "display": "MDAT speichern, verarbeiten"
                    }
                  ]
                }
              ],
              "type": "permit"
            },
            {
              "period": {
                "start": "2022-03-08",
                "end": "2052-03-31"
              },
              "code": [
                {
                  "coding": [
                    {
                      "code": "2.16.840.1.113883.3.1937.777.24.5.3.8",
                      "system": "urn:oid:2.16.840.1.113883.3.1937.777.24.5.3",
                      "display": "MDAT wissenschaftlich nutzen EU DSGVO NIVEAU"
                    }
                  ]
                }
              ],
              "type": "permit"
            },
            {
              "period": {
                "start": "2022-03-08",
                "end": "2052-03-31"
              },
              "code": [
                {
                  "coding": [
                    {
                      "code": "2.16.840.1.113883.3.1937.777.24.5.3.19",
                      "system": "urn:oid:2.16.840.1.113883.3.1937.777.24.5.3",
                      "display": "BIOMAT erheben"
                    }
                  ]
                }
              ],
              "type": "permit"
            },
            {
              "period": {
                "start": "2022-03-08",
                "end": "2052-03-31"
              },
              "code": [
                {
                  "coding": [
                    {
                      "code": "2.16.840.1.113883.3.1937.777.24.5.3.20",
                      "system": "urn:oid:2.16.840.1.113883.3.1937.777.24.5.3",
                      "display": "BIOMAT lagern verarbeiten"
                    }
                  ]
                }
              ],
              "type": "permit"
            },
            {
              "period": {
                "start": "2022-03-08",
                "end": "2052-03-31"
              },
              "code": [
                {
                  "coding": [
                    {
                      "code": "2.16.840.1.113883.3.1937.777.24.5.3.22",
                      "system": "urn:oid:2.16.840.1.113883.3.1937.777.24.5.3",
                      "display": "BIOMAT wissenschaftlich nutzen EU DSGVO NIVEAU"
                    }
                  ]
                }
              ],
              "type": "permit"
            }
          ],
          "type": "deny"
        },
        "scope": {
          "coding": [
            {
              "system": "http://terminology.hl7.org/CodeSystem/consentscope",
              "code": "research"
            }
          ]
        },
        "status": "active",
        "patient": {
          "reference": "Patient/mii-exa-test-data-patient-6"
        },
        "dateTime": "2022-03-08T11:45:00+01:00"
      }
    },
    {
      "request": {
        "method": "POST",
        "url": "Encounter"
      },
      "fullUrl": "https://www.medizininformatik-initiative.de/Encounter/mii-exa-test-data-patient-6-encounter-1",
      "resource": {
        "resourceType": "Encounter",
        "id": "mii-exa-test-data-patient-6-encounter-1",
        "meta": {
          "security": [
            {
              "code": "HTEST",
              "system": "http://terminology.hl7.org/CodeSystem/v3-ActReason",
              "display": "test health data"
            }
          ],
          "profile": [
            "https://www.medizininformatik-initiative.de/fhir/core/modul-fall/StructureDefinition/KontaktGesundheitseinrichtung"
          ]
        },
        "identifier": [
          {
            "type": {
              "coding": [
                {
                  "system": "http://terminology.hl7.org/CodeSystem/v2-0203",
                  "code": "VN"
                }
              ]
            },
            "system": "https://www.charite.de/fhir/NamingSystem/Aufnahmenummern",
            "value": "MII_0000007"
          }
        ],
        "type": [
          {
            "coding": [
              {
                "system": "http://fhir.de/CodeSystem/Kontaktebene",
                "code": "einrichtungskontakt"
              }
            ]
          },
          {
            "coding": [
              {
                "system": "http://fhir.de/CodeSystem/kontaktart-de",
                "code": "normalstationaer"
              }
            ]
          }
        ],
        "serviceType": {
          "coding": [
            {
              "system": "http://fhir.de/CodeSystem/dkgev/Fachabteilungsschluessel",
              "code": "0100"
            }
          ]
        },
        "period": {
          "start": "2022-03-12",
          "end": "2022-03-20"
        },
        "hospitalization": {
          "dischargeDisposition": {
            "extension": [
              {
                "extension": [
                  {
                    "url": "ErsteUndZweiteStelle",
                    "valueCoding": {
                      "code": "01",
                      "system": "http://fhir.de/CodeSystem/dkgev/EntlassungsgrundErsteUndZweiteStelle",
                      "display": "Behandlung regulär beendet"
                    }
                  },
                  {
                    "url": "DritteStelle",
                    "valueCoding": {
                      "code": "1",
                      "system": "http://fhir.de/CodeSystem/dkgev/EntlassungsgrundDritteStelle",
                      "display": "arbeitsfähig entlassen"
                    }
                  }
                ],
                "url": "http://fhir.de/StructureDefinition/Entlassungsgrund"
              }
            ]
          },
          "admitSource": {
            "coding": [
              {
                "code": "E",
                "system": "http://fhir.de/CodeSystem/dgkev/Aufnahmeanlass",
                "display": "Einweisung durch einen Arzt"
              }
            ]
          }
        },
        "serviceProvider": {
          "identifier": {
            "system": "https://www.medizininformatik-initiative.de/fhir/core/CodeSystem/core-location-identifier",
            "value": "Charité"
          },
          "reference": "Organization/mii-exa-test-data-organization-charite",
          "display": "Charité - Universitätsmedizin Berlin"
        },
        "status": "finished",
        "class": {
          "code": "IMP",
          "system": "http://terminology.hl7.org/CodeSystem/v3-ActCode"
        },
        "subject": {
          "reference": "Patient/mii-exa-test-data-patient-6"
        }
      }
    },
    {
      "request": {
        "method": "POST",
        "url": "Condition"
      },
      "fullUrl": "https://www.medizininformatik-initiative.de/Condition/mii-exa-test-data-patient-6-diagnose-1",
      "resource": {
        "resourceType": "Condition",
        "id": "mii-exa-test-data-patient-6-diagnose-1",
        "meta": {
          "security": [
            {
              "code": "HTEST",
              "system": "http://terminology.hl7.org/CodeSystem/v3-ActReason",
              "display": "test health data"
            }
          ],
          "profile": [
            "https://www.medizininformatik-initiative.de/fhir/core/modul-diagnose/StructureDefinition/Diagnose"
          ]
        },
        "code": {
          "coding": [
            {
              "system": "http://fhir.de/CodeSystem/bfarm/icd-10-gm",
              "code": "K29.5",
              "version": "2022"
            },
            {
              "system": "http://fhir.de/CodeSystem/bfarm/alpha-id",
              "code": "I30016",
              "version": "2022",
              "display": "Chronische Gastritis"
            },
            {
              "system": "http://snomed.info/sct",
              "code": "4556007",
              "version": "http://snomed.info/sct/900000000000207008/version/20230731",
              "display": "Gastritis (disorder)"
            }
          ]
        },
        "note": [
          {
            "text": "Chronische Gastritis, nicht näher bezeichnet"
          }
        ],
        "bodySite": [
          {
            "coding": [
              {
                "system": "http://snomed.info/sct",
                "code": "69695003",
                "version": "http://snomed.info/sct/900000000000207008/version/20230731",
                "display": "Stomach structure (body structure)"
              }
            ]
          }
        ],
        "clinicalStatus": {
          "coding": [
            {
              "code": "active",
              "system": "http://terminology.hl7.org/CodeSystem/condition-clinical"
            }
          ]
        },
        "verificationStatus": {
          "coding": [
            {
              "code": "confirmed",
              "system": "http://terminology.hl7.org/CodeSystem/condition-ver-status"
            }
          ]
        },
        "subject": {
          "reference": "Patient/mii-exa-test-data-patient-6"
        },
        "recordedDate": "2022-03-12"
      }
    },
    {
      "request": {
        "method": "POST",
        "url": "Observation"
      },
      "fullUrl": "https://www.medizininformatik-initiative.de/Observation/mii-exa-test-data-patient-6-vitalstatus-1",
      "resource": {
        "resourceType": "Observation",
        "id": "mii-exa-test-data-patient-6-vitalstatus-1",
        "meta": {
          "security": [
            {
              "code": "HTEST",
              "system": "http://terminology.hl7.org/CodeSystem/v3-ActReason",
              "display": "test health data"
            }
          ],
          "profile": [
            "https://www.medizininformatik-initiative.de/fhir/core/modul-person/StructureDefinition/Vitalstatus"
          ]
        },
        "category": [
          {
            "coding": [
              {
                "system": "http://terminology.hl7.org/CodeSystem/observation-category",
                "code": "survey"
              }
            ]
          }
        ],
        "status": "final",
        "code": {
          "coding": [
            {
              "system": "http://loinc.org",
              "code": "67162-8"
            }
          ]
        },
        "subject": {
          "reference": "Patient/mii-exa-test-data-patient-6"
        },
        "effectiveDateTime": "2024-05-22",
        "valueCodeableConcept": {
          "coding": [
            {
              "code": "L",
              "system": "https://www.medizininformatik-initiative.de/fhir/core/modul-person/CodeSystem/Vitalstatus"
            }
          ]
        }
      }
    },
    {
      "request": {
        "method": "POST",
        "url": "Procedure"
      },
      "fullUrl": "https://www.medizininformatik-initiative.de/Procedure/mii-exa-test-data-patient-6-prozedur-1",
      "resource": {
        "resourceType": "Procedure",
        "id": "mii-exa-test-data-patient-6-prozedur-1",
        "meta": {
          "security": [
            {
              "code": "HTEST",
              "system": "http://terminology.hl7.org/CodeSystem/v3-ActReason",
              "display": "test health data"
            }
          ],
          "profile": [
            "https://www.medizininformatik-initiative.de/fhir/core/modul-prozedur/StructureDefinition/Procedure"
          ]
        },
        "category": {
          "coding": [
            {
              "system": "http://snomed.info/sct",
              "code": "165197003",
              "version": "http://snomed.info/sct/900000000000207008/version/20230731"
            }
          ]
        },
        "code": {
          "coding": [
            {
              "system": "http://snomed.info/sct",
              "code": "76009000",
              "version": "http://snomed.info/sct/900000000000207008/version/20230731"
            },
            {
              "system": "http://fhir.de/CodeSystem/bfarm/ops",
              "code": "1-632.0",
              "version": "2022"
            }
          ]
        },
        "bodySite": [
          {
            "coding": [
              {
                "code": "32849002",
                "system": "http://snomed.info/sct",
                "version": "http://snomed.info/sct/900000000000207008/version/20230731"
              }
            ]
          }
        ],
        "note": [
          {
            "text": "Endoskopische Untersuchung des oberen Gastrointestinaltrakts bei Gastritis"
          }
        ],
        "extension": [
          {
            "url": "https://www.medizininformatik-initiative.de/fhir/core/modul-prozedur/StructureDefinition/Durchfuehrungsabsicht",
            "valueCoding": {
              "system": "http://snomed.info/sct",
              "code": "261004008",
              "version": "http://snomed.info/sct/900000000000207008/version/20230731",
              "display": "Diagnostic intent"
            }
          }
        ],
        "status": "completed",
        "subject": {
          "reference": "Patient/mii-exa-test-data-patient-6"
        },
        "performedDateTime": "2022-03-15T10:30:00+01:00",
        "encounter": {
          "reference": "Encounter/mii-exa-test-data-patient-6-encounter-1"
        },
        "recorder": {
          "reference": "PractitionerRole/mii-exa-test-data-practitioner-role-physician-1"
        }
      }
    },
    {
      "request": {
        "method": "POST",
        "url": "Procedure"
      },
      "fullUrl": "https://www.medizininformatik-initiative.de/Procedure/mii-exa-test-data-patient-6-prozedur-2",
      "resource": {
        "resourceType": "Procedure",
        "id": "mii-exa-test-data-patient-6-prozedur-2",
        "meta": {
          "security": [
            {
              "code": "HTEST",
              "system": "http://terminology.hl7.org/CodeSystem/v3-ActReason",
              "display": "test health data"
            }
          ],
          "profile": [
            "https://www.medizininformatik-initiative.de/fhir/core/modul-prozedur/StructureDefinition/Procedure"
          ]
        },
        "category": {
          "coding": [
            {
              "system": "http://snomed.info/sct",
              "code": "165197003",
              "version": "http://snomed.info/sct/900000000000207008/version/20230731"
            }
          ]
        },
        "code": {
          "coding": [
            {
              "system": "http://snomed.info/sct",
              "code": "408652004",
              "version": "http://snomed.info/sct/900000000000207008/version/20230731"
            },
            {
              "system": "http://fhir.de/CodeSystem/bfarm/ops",
              "code": "1-760",
              "version": "2022"
            }
          ]
        },
        "bodySite": [
          {
            "coding": [
              {
                "code": "122865005",
                "system": "http://snomed.info/sct",
                "version": "http://snomed.info/sct/900000000000207008/version/20230731"
              }
            ]
          }
        ],
        "note": [
          {
            "text": "C13-Harnstoff-Atemtest zum Nachweis von Helicobacter pylori"
          }
        ],
        "extension": [
          {
            "url": "https://www.medizininformatik-initiative.de/fhir/core/modul-prozedur/StructureDefinition/Durchfuehrungsabsicht",
            "valueCoding": {
              "system": "http://snomed.info/sct",
              "code": "261004008",
              "version": "http://snomed.info/sct/900000000000207008/version/20230731",
              "display": "Diagnostic intent"
            }
          }
        ],
        "status": "completed",
        "subject": {
          "reference": "Patient/mii-exa-test-data-patient-6"
        },
        "performedDateTime": "2022-03-16T08:00:00+01:00",
        "encounter": {
          "reference": "Encounter/mii-exa-test-data-patient-6-encounter-1"
        },
        "recorder": {
          "reference": "PractitionerRole/mii-exa-test-data-practitioner-role-physician-1"
        }
      }
    },
    {
      "request": {
        "method": "POST",
        "url": "ServiceRequest"
      },
      "fullUrl": "https://www.medizininformatik-initiative.de/ServiceRequest/mii-exa-test-data-patient-6-labrequest-1",
      "resource": {
        "resourceType": "ServiceRequest",
        "id": "mii-exa-test-data-patient-6-labrequest-1",
        "meta": {
          "security": [
            {
              "code": "HTEST",
              "system": "http://terminology.hl7.org/CodeSystem/v3-ActReason",
              "display": "test health data"
            }
          ],
          "profile": [
            "https://www.medizininformatik-initiative.de/fhir/core/modul-labor/StructureDefinition/ServiceRequestLab"
          ]
        },
        "identifier": [
          {
            "assigner": {
              "identifier": {
                "system": "https://www.medizininformatik-initiative.de/fhir/core/CodeSystem/core-location-identifier",
                "value": "Charité"
              }
            },
            "type": {
              "coding": [
                {
                  "system": "http://terminology.hl7.org/CodeSystem/v2-0203",
                  "code": "PLAC"
                }
              ]
            },
            "system": "https://www.charite.de/fhir/sid/lab-requests",
            "value": "LAB_000006"
          }
        ],
        "category": [
          {
            "coding": [
              {
                "system": "http://terminology.hl7.org/CodeSystem/observation-category",
                "code": "laboratory"
              }
            ]
          }
        ],
        "reasonCode": [
          {
            "coding": [
              {
                "code": "4556007",
                "system": "http://snomed.info/sct",
                "version": "http://snomed.info/sct/900000000000207008/version/20230731",
                "display": "Gastritis"
              }
            ]
          }
        ],
        "specimen": [
          {
            "reference": "Specimen/mii-exa-test-data-patient-6-specimen-2"
          }
        ],
        "status": "completed",
        "intent": "order",
        "code": {
          "coding": [
            {
              "code": "24360-0",
              "system": "http://loinc.org"
            }
          ]
        },
        "subject": {
          "reference": "Patient/mii-exa-test-data-patient-6"
        },
        "encounter": {
          "reference": "Encounter/mii-exa-test-data-patient-6-encounter-1"
        },
        "authoredOn": "2022-03-14T06:30:00+01:00",
        "requester": {
          "reference": "Practitioner/mii-exa-test-data-practitioner-physician-1"
        }
      }
    },
    {
      "request": {
        "method": "POST",
        "url": "DiagnosticReport"
      },
      "fullUrl": "https://www.medizininformatik-initiative.de/DiagnosticReport/mii-exa-test-data-patient-6-labreport-1",
      "resource": {
        "resourceType": "DiagnosticReport",
        "id": "mii-exa-test-data-patient-6-labreport-1",
        "meta": {
          "security": [
            {
              "code": "HTEST",
              "system": "http://terminology.hl7.org/CodeSystem/v3-ActReason",
              "display": "test health data"
            }
          ],
          "profile": [
            "https://www.medizininformatik-initiative.de/fhir/core/modul-labor/StructureDefinition/DiagnosticReportLab"
          ]
        },
        "identifier": [
          {
            "assigner": {
              "identifier": {
                "system": "https://www.medizininformatik-initiative.de/fhir/core/CodeSystem/core-location-identifier",
                "value": "Charité"
              }
            },
            "type": {
              "coding": [
                {
                  "system": "http://terminology.hl7.org/CodeSystem/v2-0203",
                  "code": "FILL"
                }
              ]
            },
            "system": "https://www.charite.de/fhir/sid/lab-results",
            "value": "LDR_000006"
          }
        ],
        "category": [
          {
            "coding": [
              {
                "system": "http://loinc.org",
                "code": "26436-6",
                "display": "Laboratory studies (set)"
              },
              {
                "system": "http://terminology.hl7.org/CodeSystem/v2-0074",
                "code": "LAB"
              }
            ]
          }
        ],
        "code": {
          "coding": [
            {
              "system": "http://loinc.org",
              "code": "11502-2",
              "display": "Laboratory report"
            }
          ]
        },
        "basedOn": [
          {
            "reference": "ServiceRequest/mii-exa-test-data-patient-6-labrequest-1"
          }
        ],
        "performer": [
          {
            "reference": "Organization/mii-exa-test-data-organization-labor-berlin"
          }
        ],
        "specimen": [
          {
            "reference": "Specimen/mii-exa-test-data-patient-6-specimen-1"
          },
          {
            "reference": "Specimen/mii-exa-test-data-patient-6-specimen-2"
          }
        ],
        "result": [
          {
            "reference": "Observation/mii-exa-test-data-patient-6-labobs-1"
          },
          {
            "reference": "Observation/mii-exa-test-data-patient-6-labobs-2"
          },
          {
            "reference": "Observation/mii-exa-test-data-patient-6-labobs-3"
          }
        ],
        "status": "final",
        "subject": {
          "reference": "Patient/mii-exa-test-data-patient-6"
        },
        "encounter": {
          "reference": "Encounter/mii-exa-test-data-patient-6-encounter-1"
        },
        "effectiveDateTime": "2022-03-14T07:00:00+01:00",
        "issued": "2022-03-14T11:45:00+01:00",
        "conclusion": "Hepatozelluläres Schädigungsmuster: Erhöhte Transaminasen (ALT 45 U/L, AST 38 U/L) bei chronischer Gastritis. Medikamenten-toxische oder inflammatorische Genese möglich."
      }
    },
    {
      "request": {
        "method": "POST",
        "url": "Observation"
      },
      "fullUrl": "https://www.medizininformatik-initiative.de/Observation/mii-exa-test-data-patient-6-labobs-1",
      "resource": {
        "resourceType": "Observation",
        "id": "mii-exa-test-data-patient-6-labobs-1",
        "meta": {
          "security": [
            {
              "code": "HTEST",
              "system": "http://terminology.hl7.org/CodeSystem/v3-ActReason",
              "display": "test health data"
            }
          ],
          "profile": [
            "https://www.medizininformatik-initiative.de/fhir/core/modul-labor/StructureDefinition/ObservationLab"
          ]
        },
        "identifier": [
          {
            "assigner": {
              "identifier": {
                "system": "https://www.medizininformatik-initiative.de/fhir/core/CodeSystem/core-location-identifier",
                "value": "Charité"
              }
            },
            "type": {
              "coding": [
                {
                  "system": "http://terminology.hl7.org/CodeSystem/v2-0203",
                  "code": "OBI"
                }
              ]
            },
            "system": "https://www.charite.de/fhir/sid/lab-results",
            "value": "LO_000020"
          }
        ],
        "category": [
          {
            "coding": [
              {
                "system": "http://loinc.org",
                "code": "26436-6",
                "display": "Laboratory studies (set)"
              },
              {
                "system": "http://terminology.hl7.org/CodeSystem/observation-category",
                "code": "laboratory",
                "display": "Laboratory"
              }
            ]
          }
        ],
        "basedOn": [
          {
            "reference": "ServiceRequest/mii-exa-test-data-patient-6-labrequest-1"
          }
        ],
        "interpretation": [
          {
            "coding": [
              {
                "code": "N",
                "system": "http://terminology.hl7.org/CodeSystem/v3-ObservationInterpretation",
                "display": "Normal"
              }
            ]
          }
        ],
        "valueQuantity": {
          "system": "http://unitsofmeasure.org",
          "value": 9.1,
          "code": "/nL",
          "unit": "/nanoliter"
        },
        "status": "final",
        "code": {
          "coding": [
            {
              "code": "26464-8",
              "system": "http://loinc.org",
              "display": "Leukocytes [#/volume] in Blood"
            }
          ]
        },
        "subject": {
          "reference": "Patient/mii-exa-test-data-patient-6"
        },
        "encounter": {
          "reference": "Encounter/mii-exa-test-data-patient-6-encounter-1"
        },
        "effectiveDateTime": "2022-03-14T07:00:00+01:00",
        "issued": "2022-03-14T09:30:00+01:00",
        "method": {
          "coding": [
            {
              "code": "703452004",
              "system": "http://snomed.info/sct",
              "version": "http://snomed.info/sct/900000000000207008/version/20230731",
              "display": "Electrical impedance technique (qualifier value)"
            }
          ]
        },
        "specimen": {
          "reference": "Specimen/mii-exa-test-data-patient-6-specimen-1"
        },
        "device": {
          "reference": "Device/mii-exa-test-data-device-roche-cobas-c303"
        }
      }
    },
    {
      "request": {
        "method": "POST",
        "url": "Observation"
      },
      "fullUrl": "https://www.medizininformatik-initiative.de/Observation/mii-exa-test-data-patient-6-labobs-2",
      "resource": {
        "resourceType": "Observation",
        "id": "mii-exa-test-data-patient-6-labobs-2",
        "meta": {
          "security": [
            {
              "code": "HTEST",
              "system": "http://terminology.hl7.org/CodeSystem/v3-ActReason",
              "display": "test health data"
            }
          ],
          "profile": [
            "https://www.medizininformatik-initiative.de/fhir/core/modul-labor/StructureDefinition/ObservationLab"
          ]
        },
        "identifier": [
          {
            "assigner": {
              "identifier": {
                "system": "https://www.medizininformatik-initiative.de/fhir/core/CodeSystem/core-location-identifier",
                "value": "Charité"
              }
            },
            "type": {
              "coding": [
                {
                  "system": "http://terminology.hl7.org/CodeSystem/v2-0203",
                  "code": "OBI"
                }
              ]
            },
            "system": "https://www.charite.de/fhir/sid/lab-results",
            "value": "LO_000021"
          }
        ],
        "category": [
          {
            "coding": [
              {
                "system": "http://loinc.org",
                "code": "26436-6",
                "display": "Laboratory studies (set)"
              },
              {
                "system": "http://terminology.hl7.org/CodeSystem/observation-category",
                "code": "laboratory",
                "display": "Laboratory"
              }
            ]
          }
        ],
        "basedOn": [
          {
            "reference": "ServiceRequest/mii-exa-test-data-patient-6-labrequest-1"
          }
        ],
        "interpretation": [
          {
            "coding": [
              {
                "code": "H",
                "system": "http://terminology.hl7.org/CodeSystem/v3-ObservationInterpretation",
                "display": "High"
              }
            ]
          }
        ],
        "valueQuantity": {
          "system": "http://unitsofmeasure.org",
          "value": 45,
          "code": "U/L",
          "unit": "unit per liter"
        },
        "status": "final",
        "code": {
          "coding": [
            {
              "code": "1742-6",
              "system": "http://loinc.org",
              "display": "Alanine aminotransferase [Enzymatic activity/volume] in Serum or Plasma"
            }
          ]
        },
        "subject": {
          "reference": "Patient/mii-exa-test-data-patient-6"
        },
        "encounter": {
          "reference": "Encounter/mii-exa-test-data-patient-6-encounter-1"
        },
        "effectiveDateTime": "2022-03-14T07:00:00+01:00",
        "issued": "2022-03-14T09:30:00+01:00",
        "method": {
          "coding": [
            {
              "code": "83561000052101",
              "system": "http://snomed.info/sct",
              "version": "http://snomed.info/sct/900000000000207008/version/20230731",
              "display": "Photometry technique (qualifier value)"
            }
          ]
        },
        "specimen": {
          "reference": "Specimen/mii-exa-test-data-patient-6-specimen-1"
        },
        "device": {
          "reference": "Device/mii-exa-test-data-device-roche-cobas-c303"
        }
      }
    },
    {
      "request": {
        "method": "POST",
        "url": "Observation"
      },
      "fullUrl": "https://www.medizininformatik-initiative.de/Observation/mii-exa-test-data-patient-6-labobs-3",
      "resource": {
        "resourceType": "Observation",
        "id": "mii-exa-test-data-patient-6-labobs-3",
        "meta": {
          "security": [
            {
              "code": "HTEST",
              "system": "http://terminology.hl7.org/CodeSystem/v3-ActReason",
              "display": "test health data"
            }
          ],
          "profile": [
            "https://www.medizininformatik-initiative.de/fhir/core/modul-labor/StructureDefinition/ObservationLab"
          ]
        },
        "identifier": [
          {
            "assigner": {
              "identifier": {
                "system": "https://www.medizininformatik-initiative.de/fhir/core/CodeSystem/core-location-identifier",
                "value": "Charité"
              }
            },
            "type": {
              "coding": [
                {
                  "system": "http://terminology.hl7.org/CodeSystem/v2-0203",
                  "code": "OBI"
                }
              ]
            },
            "system": "https://www.charite.de/fhir/sid/lab-results",
            "value": "LO_000022"
          }
        ],
        "category": [
          {
            "coding": [
              {
                "system": "http://loinc.org",
                "code": "26436-6",
                "display": "Laboratory studies (set)"
              },
              {
                "system": "http://terminology.hl7.org/CodeSystem/observation-category",
                "code": "laboratory",
                "display": "Laboratory"
              }
            ]
          }
        ],
        "basedOn": [
          {
            "reference": "ServiceRequest/mii-exa-test-data-patient-6-labrequest-1"
          }
        ],
        "interpretation": [
          {
            "coding": [
              {
                "code": "H",
                "system": "http://terminology.hl7.org/CodeSystem/v3-ObservationInterpretation",
                "display": "High"
              }
            ]
          }
        ],
        "valueQuantity": {
          "system": "http://unitsofmeasure.org",
          "value": 38,
          "code": "U/L",
          "unit": "unit per liter"
        },
        "status": "final",
        "code": {
          "coding": [
            {
              "code": "1920-8",
              "system": "http://loinc.org",
              "display": "Aspartate aminotransferase [Enzymatic activity/volume] in Serum or Plasma"
            }
          ]
        },
        "subject": {
          "reference": "Patient/mii-exa-test-data-patient-6"
        },
        "encounter": {
          "reference": "Encounter/mii-exa-test-data-patient-6-encounter-1"
        },
        "effectiveDateTime": "2022-03-14T07:00:00+01:00",
        "issued": "2022-03-14T09:30:00+01:00",
        "method": {
          "coding": [
            {
              "code": "83561000052101",
              "system": "http://snomed.info/sct",
              "version": "http://snomed.info/sct/900000000000207008/version/20230731",
              "display": "Photometry technique (qualifier value)"
            }
          ]
        },
        "specimen": {
          "reference": "Specimen/mii-exa-test-data-patient-6-specimen-1"
        },
        "device": {
          "reference": "Device/mii-exa-test-data-device-roche-cobas-c303"
        }
      }
    },
    {
      "request": {
        "method": "POST",
        "url": "MedicationRequest"
      },
      "fullUrl": "https://www.medizininformatik-initiative.de/MedicationRequest/mii-exa-test-data-patient-6-medrequest-1",
      "resource": {
        "resourceType": "MedicationRequest",
        "id": "mii-exa-test-data-patient-6-medrequest-1",
        "meta": {
          "security": [
            {
              "code": "HTEST",
              "system": "http://terminology.hl7.org/CodeSystem/v3-ActReason",
              "display": "test health data"
            }
          ],
          "profile": [
            "https://www.medizininformatik-initiative.de/fhir/core/modul-medikation/StructureDefinition/MedicationRequest"
          ]
        },
        "identifier": [
          {
            "system": "https://www.charite.de/fhir/sid/MedicationOrders",
            "value": "MO_0000015"
          }
        ],
        "dosageInstruction": [
          {
            "doseAndRate": [
              {
                "doseQuantity": {
                  "value": 40,
                  "code": "mg",
                  "system": "http://unitsofmeasure.org",
                  "unit": "mg"
                }
              }
            ],
            "timing": {
              "repeat": {
                "when": [
                  "MORN"
                ],
                "frequency": 1,
                "period": 1,
                "periodUnit": "d"
              }
            },
            "text": "Pantoprazol 40mg 1x täglich morgens",
            "route": {
              "coding": [
                {
                  "code": "20053000",
                  "system": "http://standardterms.edqm.eu",
                  "display": "Oral use"
                }
              ]
            }
          }
        ],
        "substitution": {
          "allowedBoolean": true
        },
        "status": "active",
        "intent": "order",
        "medicationReference": {
          "reference": "Medication/mii-exa-test-data-medication-pantoprazol"
        },
        "subject": {
          "reference": "Patient/mii-exa-test-data-patient-6"
        },
        "encounter": {
          "reference": "Encounter/mii-exa-test-data-patient-6-encounter-1"
        },
        "authoredOn": "2022-03-13T08:00:00+01:00"
      }
    },
    {
      "request": {
        "method": "POST",
        "url": "MedicationRequest"
      },
      "fullUrl": "https://www.medizininformatik-initiative.de/MedicationRequest/mii-exa-test-data-patient-6-medrequest-2",
      "resource": {
        "resourceType": "MedicationRequest",
        "id": "mii-exa-test-data-patient-6-medrequest-2",
        "meta": {
          "security": [
            {
              "code": "HTEST",
              "system": "http://terminology.hl7.org/CodeSystem/v3-ActReason",
              "display": "test health data"
            }
          ],
          "profile": [
            "https://www.medizininformatik-initiative.de/fhir/core/modul-medikation/StructureDefinition/MedicationRequest"
          ]
        },
        "identifier": [
          {
            "system": "https://www.charite.de/fhir/sid/MedicationOrders",
            "value": "MO_0000016"
          }
        ],
        "dosageInstruction": [
          {
            "doseAndRate": [
              {
                "doseQuantity": {
                  "value": 500,
                  "code": "mg",
                  "system": "http://unitsofmeasure.org",
                  "unit": "mg"
                }
              }
            ],
            "timing": {
              "repeat": {
                "frequency": 3,
                "period": 1,
                "periodUnit": "d"
              }
            },
            "text": "Amoxicillin 500mg 3x täglich",
            "route": {
              "coding": [
                {
                  "code": "20053000",
                  "system": "http://standardterms.edqm.eu",
                  "display": "Oral use"
                }
              ]
            }
          }
        ],
        "substitution": {
          "allowedBoolean": true
        },
        "status": "active",
        "intent": "order",
        "medicationReference": {
          "reference": "Medication/mii-exa-test-data-medication-amoxicillin"
        },
        "subject": {
          "reference": "Patient/mii-exa-test-data-patient-6"
        },
        "encounter": {
          "reference": "Encounter/mii-exa-test-data-patient-6-encounter-1"
        },
        "authoredOn": "2022-03-13T08:30:00+01:00"
      }
    },
    {
      "request": {
        "method": "POST",
        "url": "MedicationRequest"
      },
      "fullUrl": "https://www.medizininformatik-initiative.de/MedicationRequest/mii-exa-test-data-patient-6-medrequest-3",
      "resource": {
        "resourceType": "MedicationRequest",
        "id": "mii-exa-test-data-patient-6-medrequest-3",
        "meta": {
          "security": [
            {
              "code": "HTEST",
              "system": "http://terminology.hl7.org/CodeSystem/v3-ActReason",
              "display": "test health data"
            }
          ],
          "profile": [
            "https://www.medizininformatik-initiative.de/fhir/core/modul-medikation/StructureDefinition/MedicationRequest"
          ]
        },
        "identifier": [
          {
            "system": "https://www.charite.de/fhir/sid/MedicationOrders",
            "value": "MO_0000017"
          }
        ],
        "dosageInstruction": [
          {
            "doseAndRate": [
              {
                "doseQuantity": {
                  "value": 250,
                  "code": "mg",
                  "system": "http://unitsofmeasure.org",
                  "unit": "mg"
                }
              }
            ],
            "timing": {
              "repeat": {
                "frequency": 2,
                "period": 1,
                "periodUnit": "d"
              }
            },
            "text": "Clarithromycin 250mg 2x täglich",
            "route": {
              "coding": [
                {
                  "code": "20053000",
                  "system": "http://standardterms.edqm.eu",
                  "display": "Oral use"
                }
              ]
            }
          }
        ],
        "substitution": {
          "allowedBoolean": true
        },
        "status": "active",
        "intent": "order",
        "medicationReference": {
          "reference": "Medication/mii-exa-test-data-medication-clarithromycin"
        },
        "subject": {
          "reference": "Patient/mii-exa-test-data-patient-6"
        },
        "encounter": {
          "reference": "Encounter/mii-exa-test-data-patient-6-encounter-1"
        },
        "authoredOn": "2022-03-13T08:30:00+01:00"
      }
    },
    {
      "request": {
        "method": "POST",
        "url": "MedicationStatement"
      },
      "fullUrl": "https://www.medizininformatik-initiative.de/MedicationStatement/mii-exa-test-data-patient-6-medstatement-1",
      "resource": {
        "resourceType": "MedicationStatement",
        "id": "mii-exa-test-data-patient-6-medstatement-1",
        "meta": {
          "security": [
            {
              "code": "HTEST",
              "system": "http://terminology.hl7.org/CodeSystem/v3-ActReason",
              "display": "test health data"
            }
          ],
          "profile": [
            "https://www.medizininformatik-initiative.de/fhir/core/modul-medikation/StructureDefinition/MedicationStatement"
          ]
        },
        "identifier": [
          {
            "system": "https://www.charite.de/fhir/sid/MedicationStatements",
            "value": "MS_0000016"
          }
        ],
        "basedOn": [
          {
            "reference": "MedicationRequest/mii-exa-test-data-patient-6-medrequest-1"
          }
        ],
        "category": {
          "coding": [
            {
              "system": "http://terminology.hl7.org/CodeSystem/medication-statement-category",
              "code": "inpatient"
            },
            {
              "system": "http://ihe-d.de/CodeSystems/FallkontextBeiDokumentenerstellung",
              "code": "E200",
              "display": "stationärer Aufenthalt"
            }
          ]
        },
        "effectivePeriod": {
          "start": "2022-03-13T08:00:00+01:00",
          "end": "2022-03-20T08:00:00+01:00"
        },
        "dosage": [
          {
            "route": {
              "coding": [
                {
                  "system": "http://standardterms.edqm.eu",
                  "code": "20053000",
                  "display": "Oral use"
                }
              ]
            },
            "doseAndRate": [
              {
                "doseQuantity": {
                  "system": "http://unitsofmeasure.org",
                  "value": 40,
                  "code": "mg",
                  "unit": "mg"
                }
              }
            ],
            "timing": {
              "repeat": {
                "when": [
                  "MORN"
                ],
                "frequency": 1,
                "period": 1,
                "periodUnit": "d"
              }
            },
            "text": "Pantoprazol 40mg 1x täglich morgens"
          }
        ],
        "status": "completed",
        "medicationReference": {
          "reference": "Medication/mii-exa-test-data-medication-pantoprazol"
        },
        "subject": {
          "reference": "Patient/mii-exa-test-data-patient-6"
        },
        "context": {
          "reference": "Encounter/mii-exa-test-data-patient-6-encounter-1"
        },
        "dateAsserted": "2022-03-13"
      }
    },
    {
      "request": {
        "method": "POST",
        "url": "MedicationStatement"
      },
      "fullUrl": "https://www.medizininformatik-initiative.de/MedicationStatement/mii-exa-test-data-patient-6-medstatement-2",
      "resource": {
        "resourceType": "MedicationStatement",
        "id": "mii-exa-test-data-patient-6-medstatement-2",
        "meta": {
          "security": [
            {
              "code": "HTEST",
              "system": "http://terminology.hl7.org/CodeSystem/v3-ActReason",
              "display": "test health data"
            }
          ],
          "profile": [
            "https://www.medizininformatik-initiative.de/fhir/core/modul-medikation/StructureDefinition/MedicationStatement"
          ]
        },
        "identifier": [
          {
            "system": "https://www.charite.de/fhir/sid/MedicationStatements",
            "value": "MS_0000017"
          }
        ],
        "basedOn": [
          {
            "reference": "MedicationRequest/mii-exa-test-data-patient-6-medrequest-2"
          }
        ],
        "category": {
          "coding": [
            {
              "system": "http://terminology.hl7.org/CodeSystem/medication-statement-category",
              "code": "inpatient"
            },
            {
              "system": "http://ihe-d.de/CodeSystems/FallkontextBeiDokumentenerstellung",
              "code": "E200",
              "display": "stationärer Aufenthalt"
            }
          ]
        },
        "effectivePeriod": {
          "start": "2022-03-13T08:30:00+01:00",
          "end": "2022-03-20T08:30:00+01:00"
        },
        "dosage": [
          {
            "route": {
              "coding": [
                {
                  "system": "http://standardterms.edqm.eu",
                  "code": "20053000",
                  "display": "Oral use"
                }
              ]
            },
            "doseAndRate": [
              {
                "doseQuantity": {
                  "system": "http://unitsofmeasure.org",
                  "value": 500,
                  "code": "mg",
                  "unit": "mg"
                }
              }
            ],
            "timing": {
              "repeat": {
                "frequency": 3,
                "period": 1,
                "periodUnit": "d"
              }
            },
            "text": "Amoxicillin 500mg 3x täglich"
          }
        ],
        "status": "completed",
        "medicationReference": {
          "reference": "Medication/mii-exa-test-data-medication-amoxicillin"
        },
        "subject": {
          "reference": "Patient/mii-exa-test-data-patient-6"
        },
        "context": {
          "reference": "Encounter/mii-exa-test-data-patient-6-encounter-1"
        },
        "dateAsserted": "2022-03-13"
      }
    },
    {
      "request": {
        "method": "POST",
        "url": "MedicationStatement"
      },
      "fullUrl": "https://www.medizininformatik-initiative.de/MedicationStatement/mii-exa-test-data-patient-6-medstatement-3",
      "resource": {
        "resourceType": "MedicationStatement",
        "id": "mii-exa-test-data-patient-6-medstatement-3",
        "meta": {
          "security": [
            {
              "code": "HTEST",
              "system": "http://terminology.hl7.org/CodeSystem/v3-ActReason",
              "display": "test health data"
            }
          ],
          "profile": [
            "https://www.medizininformatik-initiative.de/fhir/core/modul-medikation/StructureDefinition/MedicationStatement"
          ]
        },
        "identifier": [
          {
            "system": "https://www.charite.de/fhir/sid/MedicationStatements",
            "value": "MS_0000018"
          }
        ],
        "basedOn": [
          {
            "reference": "MedicationRequest/mii-exa-test-data-patient-6-medrequest-3"
          }
        ],
        "category": {
          "coding": [
            {
              "system": "http://terminology.hl7.org/CodeSystem/medication-statement-category",
              "code": "inpatient"
            },
            {
              "system": "http://ihe-d.de/CodeSystems/FallkontextBeiDokumentenerstellung",
              "code": "E200",
              "display": "stationärer Aufenthalt"
            }
          ]
        },
        "effectivePeriod": {
          "start": "2022-03-13T08:30:00+01:00",
          "end": "2022-03-20T08:30:00+01:00"
        },
        "dosage": [
          {
            "route": {
              "coding": [
                {
                  "system": "http://standardterms.edqm.eu",
                  "code": "20053000",
                  "display": "Oral use"
                }
              ]
            },
            "doseAndRate": [
              {
                "doseQuantity": {
                  "system": "http://unitsofmeasure.org",
                  "value": 250,
                  "code": "mg",
                  "unit": "mg"
                }
              }
            ],
            "timing": {
              "repeat": {
                "frequency": 2,
                "period": 1,
                "periodUnit": "d"
              }
            },
            "text": "Clarithromycin 250mg 2x täglich"
          }
        ],
        "status": "completed",
        "medicationReference": {
          "reference": "Medication/mii-exa-test-data-medication-clarithromycin"
        },
        "subject": {
          "reference": "Patient/mii-exa-test-data-patient-6"
        },
        "context": {
          "reference": "Encounter/mii-exa-test-data-patient-6-encounter-1"
        },
        "dateAsserted": "2022-03-13"
      }
    },
    {
      "request": {
        "method": "POST",
        "url": "MedicationAdministration"
      },
      "fullUrl": "https://www.medizininformatik-initiative.de/MedicationAdministration/mii-exa-test-data-patient-6-medadmin-1",
      "resource": {
        "resourceType": "MedicationAdministration",
        "id": "mii-exa-test-data-patient-6-medadmin-1",
        "meta": {
          "security": [
            {
              "code": "HTEST",
              "system": "http://terminology.hl7.org/CodeSystem/v3-ActReason",
              "display": "test health data"
            }
          ],
          "profile": [
            "https://www.medizininformatik-initiative.de/fhir/core/modul-medikation/StructureDefinition/MedicationAdministration"
          ]
        },
        "identifier": [
          {
            "system": "https://www.charite.de/fhir/sid/MedicationAdministrations",
            "value": "MA_0000013"
          }
        ],
        "dosage": {
          "route": {
            "coding": [
              {
                "system": "http://standardterms.edqm.eu",
                "code": "20053000",
                "display": "Oral use"
              }
            ]
          },
          "dose": {
            "system": "http://unitsofmeasure.org",
            "value": 40,
            "code": "mg",
            "unit": "mg"
          },
          "text": "Pantoprazol 40mg oral morgens"
        },
        "status": "completed",
        "category": {
          "coding": [
            {
              "code": "inpatient",
              "system": "http://terminology.hl7.org/CodeSystem/medication-admin-category",
              "display": "Inpatient"
            }
          ]
        },
        "medicationReference": {
          "reference": "Medication/mii-exa-test-data-medication-pantoprazol"
        },
        "subject": {
          "reference": "Patient/mii-exa-test-data-patient-6"
        },
        "context": {
          "reference": "Encounter/mii-exa-test-data-patient-6-encounter-1"
        },
        "effectiveDateTime": "2022-03-13T08:00:00+01:00",
        "request": {
          "reference": "MedicationRequest/mii-exa-test-data-patient-6-medrequest-1"
        }
      }
    },
    {
      "request": {
        "method": "POST",
        "url": "MedicationAdministration"
      },
      "fullUrl": "https://www.medizininformatik-initiative.de/MedicationAdministration/mii-exa-test-data-patient-6-medadmin-2",
      "resource": {
        "resourceType": "MedicationAdministration",
        "id": "mii-exa-test-data-patient-6-medadmin-2",
        "meta": {
          "security": [
            {
              "code": "HTEST",
              "system": "http://terminology.hl7.org/CodeSystem/v3-ActReason",
              "display": "test health data"
            }
          ],
          "profile": [
            "https://www.medizininformatik-initiative.de/fhir/core/modul-medikation/StructureDefinition/MedicationAdministration"
          ]
        },
        "identifier": [
          {
            "system": "https://www.charite.de/fhir/sid/MedicationAdministrations",
            "value": "MA_0000014"
          }
        ],
        "dosage": {
          "route": {
            "coding": [
              {
                "system": "http://standardterms.edqm.eu",
                "code": "20053000",
                "display": "Oral use"
              }
            ]
          },
          "dose": {
            "system": "http://unitsofmeasure.org",
            "value": 500,
            "code": "mg",
            "unit": "mg"
          },
          "text": "Amoxicillin 500mg oral"
        },
        "status": "completed",
        "category": {
          "coding": [
            {
              "code": "inpatient",
              "system": "http://terminology.hl7.org/CodeSystem/medication-admin-category",
              "display": "Inpatient"
            }
          ]
        },
        "medicationReference": {
          "reference": "Medication/mii-exa-test-data-medication-amoxicillin"
        },
        "subject": {
          "reference": "Patient/mii-exa-test-data-patient-6"
        },
        "context": {
          "reference": "Encounter/mii-exa-test-data-patient-6-encounter-1"
        },
        "effectiveDateTime": "2022-03-13T09:00:00+01:00",
        "request": {
          "reference": "MedicationRequest/mii-exa-test-data-patient-6-medrequest-2"
        }
      }
    },
    {
      "request": {
        "method": "POST",
        "url": "List"
      },
      "fullUrl": "https://www.medizininformatik-initiative.de/List/mii-exa-test-data-patient-6-list-aufnahmemedikation",
      "resource": {
        "resourceType": "List",
        "id": "mii-exa-test-data-patient-6-list-aufnahmemedikation",
        "meta": {
          "security": [
            {
              "code": "HTEST",
              "system": "http://terminology.hl7.org/CodeSystem/v3-ActReason",
              "display": "test health data"
            }
          ],
          "profile": [
            "https://www.medizininformatik-initiative.de/fhir/core/modul-medikation/StructureDefinition/medikationsliste"
          ]
        },
        "code": {
          "coding": [
            {
              "system": "http://terminology.hl7.org/CodeSystem/list-example-use-codes",
              "code": "medications"
            },
            {
              "system": "http://ihe-d.de/CodeSystems/FallkontextBeiDokumentenerstellung",
              "code": "E210"
            }
          ]
        },
        "entry": [
          {
            "item": {
              "reference": "MedicationStatement/mii-exa-test-data-patient-6-medstatement-1"
            }
          }
        ],
        "status": "current",
        "mode": "snapshot",
        "title": "Aufnahmemedikation",
        "subject": {
          "reference": "Patient/mii-exa-test-data-patient-6"
        }
      }
    },
    {
      "request": {
        "method": "POST",
        "url": "List"
      },
      "fullUrl": "https://www.medizininformatik-initiative.de/List/mii-exa-test-data-patient-6-list-stat-aufenthalt",
      "resource": {
        "resourceType": "List",
        "id": "mii-exa-test-data-patient-6-list-stat-aufenthalt",
        "meta": {
          "security": [
            {
              "code": "HTEST",
              "system": "http://terminology.hl7.org/CodeSystem/v3-ActReason",
              "display": "test health data"
            }
          ],
          "profile": [
            "https://www.medizininformatik-initiative.de/fhir/core/modul-medikation/StructureDefinition/medikationsliste"
          ]
        },
        "code": {
          "coding": [
            {
              "system": "http://terminology.hl7.org/CodeSystem/list-example-use-codes",
              "code": "medications"
            },
            {
              "system": "http://ihe-d.de/CodeSystems/FallkontextBeiDokumentenerstellung",
              "code": "E200"
            }
          ]
        },
        "entry": [
          {
            "item": {
              "reference": "MedicationStatement/mii-exa-test-data-patient-6-medstatement-1"
            }
          },
          {
            "item": {
              "reference": "MedicationStatement/mii-exa-test-data-patient-6-medstatement-2"
            }
          },
          {
            "item": {
              "reference": "MedicationStatement/mii-exa-test-data-patient-6-medstatement-3"
            }
          }
        ],
        "status": "current",
        "mode": "working",
        "title": "Medikationsliste während stationärem Aufenthalt",
        "subject": {
          "reference": "Patient/mii-exa-test-data-patient-6"
        }
      }
    },
    {
      "request": {
        "method": "POST",
        "url": "List"
      },
      "fullUrl": "https://www.medizininformatik-initiative.de/List/mii-exa-test-data-patient-6-list-entlassmedikation",
      "resource": {
        "resourceType": "List",
        "id": "mii-exa-test-data-patient-6-list-entlassmedikation",
        "meta": {
          "security": [
            {
              "code": "HTEST",
              "system": "http://terminology.hl7.org/CodeSystem/v3-ActReason",
              "display": "test health data"
            }
          ],
          "profile": [
            "https://www.medizininformatik-initiative.de/fhir/core/modul-medikation/StructureDefinition/medikationsliste"
          ]
        },
        "code": {
          "coding": [
            {
              "system": "http://terminology.hl7.org/CodeSystem/list-example-use-codes",
              "code": "medications"
            },
            {
              "system": "http://ihe-d.de/CodeSystems/FallkontextBeiDokumentenerstellung",
              "code": "E230"
            }
          ]
        },
        "entry": [
          {
            "item": {
              "reference": "MedicationStatement/mii-exa-test-data-patient-6-medstatement-1"
            }
          }
        ],
        "status": "current",
        "mode": "snapshot",
        "title": "Entlassmedikation",
        "subject": {
          "reference": "Patient/mii-exa-test-data-patient-6"
        }
      }
    },
    {
      "request": {
        "method": "POST",
        "url": "Medication"
      },
      "fullUrl": "https://www.medizininformatik-initiative.de/Medication/mii-exa-test-data-medication-pantoprazol",
      "resource": {
        "resourceType": "Medication",
        "id": "mii-exa-test-data-medication-pantoprazol",
        "meta": {
          "security": [
            {
              "code": "HTEST",
              "system": "http://terminology.hl7.org/CodeSystem/v3-ActReason",
              "display": "test health data"
            }
          ],
          "profile": [
            "https://www.medizininformatik-initiative.de/fhir/core/modul-medikation/StructureDefinition/Medication"
          ]
        },
        "code": {
          "coding": [
            {
              "system": "http://fhir.de/CodeSystem/bfarm/atc",
              "code": "A02BC02",
              "version": "2024",
              "display": "Pantoprazol"
            }
          ]
        },
        "ingredient": [
          {
            "itemCodeableConcept": {
              "coding": [
                {
                  "system": "http://fhir.de/CodeSystem/ask",
                  "code": "02069",
                  "display": "Pantoprazol"
                }
              ]
            },
            "strength": {
              "numerator": {
                "value": 40,
                "code": "mg",
                "system": "http://unitsofmeasure.org",
                "unit": "mg"
              },
              "denominator": {
                "value": 1,
                "code": "1",
                "system": "http://unitsofmeasure.org",
                "unit": "1"
              }
            }
          }
        ],
        "form": {
          "coding": [
            {
              "code": "10221000",
              "system": "http://standardterms.edqm.eu",
              "display": "Film-coated tablet"
            }
          ]
        },
        "status": "active"
      }
    },
    {
      "request": {
        "method": "POST",
        "url": "Medication"
      },
      "fullUrl": "https://www.medizininformatik-initiative.de/Medication/mii-exa-test-data-medication-amoxicillin",
      "resource": {
        "resourceType": "Medication",
        "id": "mii-exa-test-data-medication-amoxicillin",
        "meta": {
          "security": [
            {
              "code": "HTEST",
              "system": "http://terminology.hl7.org/CodeSystem/v3-ActReason",
              "display": "test health data"
            }
          ],
          "profile": [
            "https://www.medizininformatik-initiative.de/fhir/core/modul-medikation/StructureDefinition/Medication"
          ]
        },
        "code": {
          "coding": [
            {
              "system": "http://fhir.de/CodeSystem/bfarm/atc",
              "code": "J01CA04",
              "version": "2024",
              "display": "Amoxicillin"
            }
          ]
        },
        "ingredient": [
          {
            "itemCodeableConcept": {
              "coding": [
                {
                  "system": "http://fhir.de/CodeSystem/ask",
                  "code": "00097",
                  "display": "Amoxicillin"
                }
              ]
            },
            "strength": {
              "numerator": {
                "value": 500,
                "code": "mg",
                "system": "http://unitsofmeasure.org",
                "unit": "mg"
              },
              "denominator": {
                "value": 1,
                "code": "1",
                "system": "http://unitsofmeasure.org",
                "unit": "1"
              }
            }
          }
        ],
        "form": {
          "coding": [
            {
              "code": "10210000",
              "system": "http://standardterms.edqm.eu",
              "display": "Capsule, hard"
            }
          ]
        },
        "status": "active"
      }
    },
    {
      "request": {
        "method": "POST",
        "url": "Medication"
      },
      "fullUrl": "https://www.medizininformatik-initiative.de/Medication/mii-exa-test-data-medication-clarithromycin",
      "resource": {
        "resourceType": "Medication",
        "id": "mii-exa-test-data-medication-clarithromycin",
        "meta": {
          "security": [
            {
              "code": "HTEST",
              "system": "http://terminology.hl7.org/CodeSystem/v3-ActReason",
              "display": "test health data"
            }
          ],
          "profile": [
            "https://www.medizininformatik-initiative.de/fhir/core/modul-medikation/StructureDefinition/Medication"
          ]
        },
        "code": {
          "coding": [
            {
              "system": "http://fhir.de/CodeSystem/bfarm/atc",
              "code": "J01FA09",
              "version": "2024",
              "display": "Clarithromycin"
            }
          ]
        },
        "ingredient": [
          {
            "itemCodeableConcept": {
              "coding": [
                {
                  "system": "http://fhir.de/CodeSystem/ask",
                  "code": "00594",
                  "display": "Clarithromycin"
                }
              ]
            },
            "strength": {
              "numerator": {
                "value": 250,
                "code": "mg",
                "system": "http://unitsofmeasure.org",
                "unit": "mg"
              },
              "denominator": {
                "value": 1,
                "code": "1",
                "system": "http://unitsofmeasure.org",
                "unit": "1"
              }
            }
          }
        ],
        "form": {
          "coding": [
            {
              "code": "10221000",
              "system": "http://standardterms.edqm.eu",
              "display": "Film-coated tablet"
            }
          ]
        },
        "status": "active"
      }
    },
    {
      "request": {
        "method": "POST",
        "url": "Specimen"
      },
      "fullUrl": "https://www.medizininformatik-initiative.de/Specimen/mii-exa-test-data-patient-6-specimen-1",
      "resource": {
        "resourceType": "Specimen",
        "id": "mii-exa-test-data-patient-6-specimen-1",
        "meta": {
          "security": [
            {
              "code": "HTEST",
              "system": "http://terminology.hl7.org/CodeSystem/v3-ActReason",
              "display": "test health data"
            }
          ],
          "profile": [
            "https://www.medizininformatik-initiative.de/fhir/ext/modul-biobank/StructureDefinition/Specimen"
          ]
        },
        "extension": [
          {
            "url": "https://www.medizininformatik-initiative.de/fhir/ext/modul-biobank/StructureDefinition/VerwaltendeOrganisation",
            "valueReference": {
              "reference": "Organization/mii-exa-test-data-organization-biobank-charite"
            }
          },
          {
            "url": "https://www.medizininformatik-initiative.de/fhir/ext/modul-biobank/StructureDefinition/Diagnose",
            "valueReference": {
              "reference": "Condition/mii-exa-test-data-patient-6-diagnose-1"
            }
          }
        ],
        "identifier": [
          {
            "system": "https://www.charite.de/fhir/sid/Bioproben",
            "value": "BP_000010"
          }
        ],
        "type": {
          "coding": [
            {
              "code": "445295009",
              "system": "http://snomed.info/sct",
              "version": "http://snomed.info/sct/900000000000207008/version/20230731",
              "display": "Blood specimen with edetic acid (specimen)"
            }
          ]
        },
        "collection": {
          "bodySite": {
            "coding": [
              {
                "code": "368208006",
                "system": "http://snomed.info/sct",
                "version": "http://snomed.info/sct/900000000000207008/version/20230731",
                "display": "Left upper arm structure (body structure)"
              }
            ]
          },
          "collectedDateTime": "2022-03-14T06:15:00+01:00"
        },
        "container": [
          {
            "type": {
              "coding": [
                {
                  "code": "83059008",
                  "system": "http://snomed.info/sct",
                  "version": "http://snomed.info/sct/900000000000207008/version/20230731",
                  "display": "Tube, device (physical object)"
                }
              ]
            },
            "capacity": {
              "value": 5,
              "code": "ml",
              "system": "http://unitsofmeasure.org"
            },
            "specimenQuantity": {
              "value": 5,
              "code": "ml",
              "system": "http://unitsofmeasure.org"
            }
          }
        ],
        "status": "available",
        "subject": {
          "reference": "Patient/mii-exa-test-data-patient-6"
        }
      }
    },
    {
      "request": {
        "method": "POST",
        "url": "Specimen"
      },
      "fullUrl": "https://www.medizininformatik-initiative.de/Specimen/mii-exa-test-data-patient-6-specimen-2",
      "resource": {
        "resourceType": "Specimen",
        "id": "mii-exa-test-data-patient-6-specimen-2",
        "meta": {
          "security": [
            {
              "code": "HTEST",
              "system": "http://terminology.hl7.org/CodeSystem/v3-ActReason",
              "display": "test health data"
            }
          ],
          "profile": [
            "https://www.medizininformatik-initiative.de/fhir/ext/modul-biobank/StructureDefinition/Specimen"
          ]
        },
        "extension": [
          {
            "url": "https://www.medizininformatik-initiative.de/fhir/ext/modul-biobank/StructureDefinition/VerwaltendeOrganisation",
            "valueReference": {
              "reference": "Organization/mii-exa-test-data-organization-biobank-charite"
            }
          },
          {
            "url": "https://www.medizininformatik-initiative.de/fhir/ext/modul-biobank/StructureDefinition/Diagnose",
            "valueReference": {
              "reference": "Condition/mii-exa-test-data-patient-6-diagnose-1"
            }
          }
        ],
        "identifier": [
          {
            "system": "https://www.charite.de/fhir/sid/Bioproben",
            "value": "BP_000011"
          }
        ],
        "type": {
          "coding": [
            {
              "code": "119364003",
              "system": "http://snomed.info/sct",
              "version": "http://snomed.info/sct/900000000000207008/version/20230731",
              "display": "Serum specimen (specimen)"
            }
          ]
        },
        "collection": {
          "bodySite": {
            "coding": [
              {
                "code": "368209003",
                "system": "http://snomed.info/sct",
                "version": "http://snomed.info/sct/900000000000207008/version/20230731",
                "display": "Right upper arm structure (body structure)"
              }
            ]
          },
          "collectedDateTime": "2022-03-14T06:15:00+01:00"
        },
        "container": [
          {
            "type": {
              "coding": [
                {
                  "code": "83059008",
                  "system": "http://snomed.info/sct",
                  "version": "http://snomed.info/sct/900000000000207008/version/20230731",
                  "display": "Tube, device (physical object)"
                }
              ]
            },
            "capacity": {
              "value": 7,
              "code": "ml",
              "system": "http://unitsofmeasure.org"
            },
            "specimenQuantity": {
              "value": 7,
              "code": "ml",
              "system": "http://unitsofmeasure.org"
            }
          }
        ],
        "status": "available",
        "subject": {
          "reference": "Patient/mii-exa-test-data-patient-6"
        }
      }
    },
    {
      "request": {
        "method": "POST",
        "url": "Organization"
      },
      "fullUrl": "https://www.medizininformatik-initiative.de/Organization/mii-exa-test-data-organization-charite",
      "resource": {
        "resourceType": "Organization",
        "id": "mii-exa-test-data-organization-charite",
        "meta": {
          "security": [
            {
              "code": "HTEST",
              "system": "http://terminology.hl7.org/CodeSystem/v3-ActReason",
              "display": "test health data"
            }
          ]
        },
        "type": [
          {
            "coding": [
              {
                "code": "prov",
                "system": "http://terminology.hl7.org/CodeSystem/organization-type",
                "display": "Healthcare Provider"
              }
            ]
          }
        ],
        "name": "Charité – Universitätsmedizin Berlin"
      }
    },
    {
      "request": {
        "method": "POST",
        "url": "Organization"
      },
      "fullUrl": "https://www.medizininformatik-initiative.de/Organization/mii-exa-test-data-organization-labor-berlin",
      "resource": {
        "resourceType": "Organization",
        "id": "mii-exa-test-data-organization-labor-berlin",
        "meta": {
          "security": [
            {
              "code": "HTEST",
              "system": "http://terminology.hl7.org/CodeSystem/v3-ActReason",
              "display": "test health data"
            }
          ]
        },
        "type": [
          {
            "coding": [
              {
                "code": "prov",
                "system": "http://terminology.hl7.org/CodeSystem/organization-type",
                "display": "Healthcare Provider"
              }
            ]
          }
        ],
        "name": "Labor Berlin – Charité Vivantes GmbH"
      }
    },
    {
      "request": {
        "method": "POST",
        "url": "Organization"
      },
      "fullUrl": "https://www.medizininformatik-initiative.de/Organization/mii-exa-test-data-organization-biobank-charite",
      "resource": {
        "resourceType": "Organization",
        "id": "mii-exa-test-data-organization-biobank-charite",
        "meta": {
          "security": [
            {
              "code": "HTEST",
              "system": "http://terminology.hl7.org/CodeSystem/v3-ActReason",
              "display": "test health data"
            }
          ],
          "profile": [
            "https://www.medizininformatik-initiative.de/fhir/ext/modul-biobank/StructureDefinition/Organization"
          ]
        },
        "extension": [
          {
            "url": "https://www.medizininformatik-initiative.de/fhir/ext/modul-biobank/StructureDefinition/BeschreibungSammlung",
            "valueMarkdown": "Zentrale Biobank der Charité"
          }
        ],
        "identifier": [
          {
            "system": "http://www.bbmri-eric.eu/",
            "value": "de-12345"
          }
        ],
        "alias": [
          "ZeBanC"
        ],
        "contact": [
          {
            "extension": [
              {
                "url": "https://www.medizininformatik-initiative.de/fhir/ext/modul-biobank/StructureDefinition/KontaktRolle",
                "valueString": "Direktor"
              }
            ],
            "name": {
              "given": [
                "Koch"
              ],
              "prefix": [
                "Prof."
              ],
              "family": "Robert"
            },
            "telecom": [
              {
                "system": "email",
                "value": "robert.koch@charite.de"
              }
            ],
            "address": {
              "line": [
                "Südring 7"
              ],
              "postalCode": "13353",
              "city": "Berlin"
            },
            "purpose": {
              "coding": [
                {
                  "system": "https://www.medizininformatik-initiative.de/fhir/ext/modul-biobank/CodeSystem/ContactType",
                  "code": "RESEARCH"
                }
              ]
            }
          }
        ],
        "name": "Zentrale Biobank der Charité",
        "partOf": {
          "reference": "Organization/mii-exa-test-data-organization-charite"
        }
      }
    },
    {
      "request": {
        "method": "POST",
        "url": "Practitioner"
      },
      "fullUrl": "https://www.medizininformatik-initiative.de/Practitioner/mii-exa-test-data-practitioner-physician-1",
      "resource": {
        "resourceType": "Practitioner",
        "id": "mii-exa-test-data-practitioner-physician-1",
        "meta": {
          "security": [
            {
              "code": "HTEST",
              "system": "http://terminology.hl7.org/CodeSystem/v3-ActReason",
              "display": "test health data"
            }
          ]
        },
        "name": [
          {
            "given": [
              "Rahel"
            ],
            "family": "Hirsch"
          }
        ],
        "active": true
      }
    },
    {
      "request": {
        "method": "POST",
        "url": "PractitionerRole"
      },
      "fullUrl": "https://www.medizininformatik-initiative.de/PractitionerRole/mii-exa-test-data-practitioner-role-physician-1",
      "resource": {
        "resourceType": "PractitionerRole",
        "id": "mii-exa-test-data-practitioner-role-physician-1",
        "meta": {
          "security": [
            {
              "code": "HTEST",
              "system": "http://terminology.hl7.org/CodeSystem/v3-ActReason",
              "display": "test health data"
            }
          ],
          "profile": [
            "https://www.medizininformatik-initiative.de/fhir/modul-studie/StructureDefinition/mii-pr-studie-beteiligte-person"
          ]
        },
        "code": [
          {
            "coding": [
              {
                "code": "309343006",
                "system": "http://snomed.info/sct",
                "version": "http://snomed.info/sct/900000000000207008/version/20230731",
                "display": "Physician (occupation)"
              }
            ]
          }
        ],
        "active": true,
        "practitioner": {
          "reference": "Practitioner/mii-exa-test-data-practitioner-physician-1"
        },
        "organization": {
          "reference": "Organization/mii-exa-test-data-organization-charite"
        }
      }
    },
    {
      "request": {
        "method": "POST",
        "url": "Device"
      },
      "fullUrl": "https://www.medizininformatik-initiative.de/Device/mii-exa-test-data-device-roche-cobas-c303",
      "resource": {
        "resourceType": "Device",
        "id": "mii-exa-test-data-device-roche-cobas-c303",
        "meta": {
          "security": [
            {
              "code": "HTEST",
              "system": "http://terminology.hl7.org/CodeSystem/v3-ActReason",
              "display": "test health data"
            }
          ]
        },
        "deviceName": [
          {
            "name": "cobas",
            "type": "manufacturer-name"
          }
        ],
        "status": "active",
        "manufacturer": "Roche",
        "modelNumber": "c 303",
        "parent": {
          "reference": "Device/mii-exa-test-data-device-roche-cobas"
        }
      }
    },
    {
      "request": {
        "method": "POST",
        "url": "Device"
      },
      "fullUrl": "https://www.medizininformatik-initiative.de/Device/mii-exa-test-data-device-roche-cobas",
      "resource": {
        "resourceType": "Device",
        "id": "mii-exa-test-data-device-roche-cobas",
        "meta": {
          "security": [
            {
              "code": "HTEST",
              "system": "http://terminology.hl7.org/CodeSystem/v3-ActReason",
              "display": "test health data"
            }
          ]
        },
        "deviceName": [
          {
            "name": "cobas",
            "type": "manufacturer-name"
          }
        ],
        "status": "active",
        "manufacturer": "Roche"
      }
    }
  ],
  "type": "transaction",
  "timestamp": "2025-06-18T13:56:00+02:00"
}
